Folder: isoconversion_study_of_reaction_kinetics/DSC

Note: README.md
# isoconversion_study_of_reaction_kinetics
 isoconversion study of the kinetics of the solid-phase reaction of chlorination of oxides of rare-earth metals

File: Dy_DSK.csv
#EXPORTTYPE:                 ;DATA COMPARE                                           ;DATA COMPARE                                                  ;DATA COMPARE
#FILE:                       ;11.05.23_ Dy_1.5+3_3kmin_30+500_N2-120.ngb-ds5         ;10.05.23_ Dy_1.5+3_10kmin_30+500_N2-120.ngb-ds5               ;04.05.23_Dy_1,5+3_5kmin_30+1000_N2-120.ngb-ds5
#FORMAT:                     ;NETZSCH5                                               ;NETZSCH5                                                      ;NETZSCH5
#FTYPE:                      ;ANSI                                                   ;ANSI                                                          ;ANSI
#IDENTITY:                   ;Dy_1,5+3                                               ;Dy 1.5+3                                                      ;Dy_1,5+3
#DECIMAL:                    ;COMMA                                                  ;COMMA                                                         ;COMMA
#SEPARATOR:                  ;SEMICOLON                                              ;SEMICOLON                                                     ;SEMICOLON
#MTYPE:                      ;DSC                                                    ;DSC                                                           ;DSC
#INSTRUMENT:                 ;NETZSCH STA 449F5                                      ;NETZSCH STA 449F5                                             ;NETZSCH STA 449F5
#PROJECT:                    ;                                                       ;                                                              ;
#DATE/TIME:                  ;11.05.2023 15:56:06 (UTC+3)                            ;10.05.2023 16:39:14 (UTC+3)                                   ;04.05.2023 11:29:49 (UTC+3)
#CORR. FILE:                 ;11.05.23_correction for composite-3kmin_30-500Ñ.ngb-bs5;29.04.22_correction for composite-10kmin_30+500_N2-120.ngb-bs5;18.04.23_correction for composite-5kmin_30-1000Ñ.ngb-bs5
#TEMPCAL:                    ;3kmin-N2_washer+Al2O3+cover.ngb-ts5                    ;10kmin-N2_washer+Al2O3+cover.ngb-ts5                          ;5kmin-N2_washer+Al2O3+cover.ngb-ts5
#SENSITIVITY:                ;3kmin-N2_washer+Al2O3+cover.ngb-es5                    ;10kmin-N2_washer+Al2O3+cover.ngb-ts5.ngb-es5                  ;5kmin-N2_washer+Al2O3+cover.ngb-es5
#LABORATORY:                 ;                                                       ;                                                              ;
#OPERATOR:                   ;                                                       ;                                                              ;
#REMARK:                     ;                                                       ;                                                              ;
#SAMPLE:                     ;1                                                      ;1                                                             ;1
#SAMPLE MASS /mg:            ;29,0031                                                ;23,9261                                                       ;25,0075
#MATERIAL:                   ;                                                       ;                                                              ;
#REFERENCE:                  ;                                                       ;                                                              ;
#REFERENCE MASS /mg:         ;0                                                      ;0                                                             ;0
#TYPE OF CRUCIBLE:           ;DSC/TG pan Al2O3                                       ;DSC/TG pan Al2O3                                              ;DSC/TG pan Al2O3
#SAMPLE CRUCIBLE MASS /mg:   ;0                                                      ;0                                                             ;0
#REFERENCE CRUCIBLE MASS /mg:;0                                                      ;0                                                             ;0
#DSC RANGE /µV:              ;5000                                                   ;5000                                                          ;5000
#TG RANGE /mg:               ;35000                                                  ;35000                                                         ;35000
#TAU-R:                      ;---                                                    ;---                                                           ;---
#CORR. CODE:                 ;020                                                    ;020                                                           ;020
#EXO:                        ;+1                                                     ;+1                                                            ;+1
#RANGE:                      ;30°C/3,0(K/min)/500°C                                  ;30°C/10,0(K/min)/500°C                                        ;30°C/5,0(K/min)/1000°C
#SEGMENT:                    ;S1/1                                                   ;S1/1                                                          ;S1/1
#SEG. 1:                     ;30°C/3,0(K/min)/500°C                                  ;30°C/10,0(K/min)/500°C                                        ;30°C/5,0(K/min)/1000°C

##Temp./°C;DSC/(mW/mg);DSC/(mW/mg);DSC/(mW/mg)
 30,67700; 1,864563e-003;-1,119266e-003; 1,937029e-003
 36,40649;-1,829794e-002;-4,272503e-002; 8,043397e-003
 42,13598;-2,665800e-002;-6,829838e-002; 9,874575e-003
 47,86547;-2,959240e-002;-8,502477e-002; 1,180475e-002
 53,59496;-2,995719e-002;-9,607276e-002; 1,480127e-002
 59,32445;-2,840418e-002;      -0,10263; 1,885637e-002
 65,05394;-2,510018e-002;      -0,10584; 2,315556e-002
 70,78343;-2,083159e-002;      -0,10608; 2,878984e-002
 76,51292;-1,595736e-002;      -0,10355; 3,480161e-002
 82,24241;-1,013623e-002;-9,929843e-002; 4,175834e-002
 87,97190;-4,296394e-003;-9,277124e-002; 4,867375e-002
 93,70139; 2,064811e-003;-8,509733e-002; 5,588818e-002
 99,43088; 8,734382e-003;-7,437199e-002; 6,317272e-002
105,16037; 1,575689e-002;-6,278774e-002; 7,019310e-002
110,88986; 2,286062e-002;-4,988773e-002; 7,817622e-002
116,61935; 2,995510e-002;-3,637515e-002; 8,582613e-002
122,34884; 3,768302e-002;-2,117896e-002; 9,388369e-002
128,07833; 4,414813e-002;-6,094926e-003;       0,10155
133,80782; 5,174107e-002; 9,897809e-003;       0,10905
139,53731; 5,995217e-002; 2,518339e-002;       0,11541
145,26680; 6,940899e-002; 3,909509e-002;       0,12289
150,99629; 7,748106e-002; 5,187230e-002;       0,13281
156,72578; 8,377592e-002; 6,776702e-002;       0,14253
162,45527; 9,027210e-002; 8,736896e-002;       0,14934
168,18476; 9,441621e-002;       0,10444;       0,15459
173,91425; 9,308269e-002;       0,11747;       0,15758
179,64374; 8,567187e-002;       0,12760;       0,15386
185,37323; 6,617616e-002;       0,13241;       0,14038
191,10272;      -0,34687;      -0,36306;      -0,31900
196,83221; 8,031454e-003;      -0,49900;-3,715162e-002
202,56170; 2,667462e-003;      -0,14250; 6,113971e-002
208,29119;-5,082344e-002;-1,533307e-002; 1,762025e-002
214,02068;      -0,11357;-2,605075e-002;-5,510047e-002
219,75017;      -0,17882;      -0,11065;      -0,13768
225,47966;      -0,23192;      -0,23841;      -0,21935
[...]
626,54396;              ;              ;       0,43453
632,27345;              ;              ;       0,43166
638,00294;              ;              ;       0,40836
643,73243;              ;              ; 4,372131e-002
649,46192;              ;              ;       0,71001
655,19141;              ;              ;       0,78049
660,92090;              ;              ;       0,80253
666,65039;              ;              ;       0,82164
672,37988;              ;              ;       0,84297
678,10937;              ;              ;       0,85358
683,83886;              ;              ;       0,85190
689,56835;              ;              ;       0,91650
695,29784;              ;              ;       0,93375
701,02733;              ;              ;       0,94656
706,75682;              ;              ;       0,96020
712,48631;              ;              ;       0,97673
718,21580;              ;              ;       0,99257
723,94529;              ;              ;       1,01243
729,67478;              ;              ;       1,03229
735,40427;              ;              ;       1,05537
741,13376;              ;              ;       1,07806
746,86325;              ;              ;       1,09980
752,59274;              ;              ;       1,12357
758,32223;              ;              ;       1,14767
764,05172;              ;              ;       1,17424
769,78121;              ;              ;       1,20096
775,51070;              ;              ;       1,22578
781,24019;              ;              ;       1,25215
786,96968;              ;              ;       1,27553
792,69917;              ;              ;       1,30250
798,42866;              ;              ;       1,32715
804,15815;              ;              ;       1,35591
809,88764;              ;              ;       1,37839
815,61713;              ;              ;       1,40315
821,34662;              ;              ;       1,42427
827,07611;              ;              ;       1,44341
832,80560;              ;              ;       1,45346
838,53509;              ;              ;       1,45527
844,26458;              ;              ;       1,46354
849,99407;              ;              ;       1,47766
855,72356;              ;              ;       1,48569
861,45305;              ;              ;       1,49488
867,18254;              ;              ;       1,50546
872,91203;              ;              ;       1,52102
878,64152;              ;              ;       1,53373
884,37101;              ;              ;       1,54546
890,10050;              ;              ;       1,55762
895,82999;              ;              ;       1,56881
901,55948;              ;              ;       1,58074
907,28897;              ;              ;       1,58946
913,01846;              ;              ;       1,60265
918,74795;              ;              ;       1,61013
924,47744;              ;              ;       1,61530
930,20693;              ;              ;       1,62405
935,93642;              ;              ;       1,63286
941,66591;              ;              ;       1,64496
947,39540;              ;              ;       1,65727
953,12489;              ;              ;       1,66778
958,85438;              ;              ;       1,68242
964,58387;              ;              ;       1,69631
970,31336;              ;              ;       1,70778
976,04285;              ;              ;       1,72185
981,77234;              ;              ;       1,73394
987,50183;              ;              ;       1,75143
993,23132;              ;              ;       1,76238
998,00590;              ;              ;       1,77620

File: Ho_DSK.csv
#EXPORTTYPE:                 ;DATA COMPARE                                           ;DATA COMPARE                                           ;DATA COMPARE
#FILE:                       ;02.06.23_ Ho_1,5+3_3kmin_30+500_N2-120.ngb-ds5         ;02.06.23_ Ho_1,5+3_5kmin_30+500_N2-120.ngb-ds5         ;01.06.23_ Ho_1,5+3_10kmin_30+500_N2-120.ngb-ds5
#FORMAT:                     ;NETZSCH5                                               ;NETZSCH5                                               ;NETZSCH5
#FTYPE:                      ;ANSI                                                   ;ANSI                                                   ;ANSI
#IDENTITY:                   ;Ho_1,5+3                                               ;Ho_1,5+3                                               ;Ho_1,5+3
#DECIMAL:                    ;COMMA                                                  ;COMMA                                                  ;COMMA
#SEPARATOR:                  ;SEMICOLON                                              ;SEMICOLON                                              ;SEMICOLON
#MTYPE:                      ;DSC                                                    ;DSC                                                    ;DSC
#INSTRUMENT:                 ;NETZSCH STA 449F5                                      ;NETZSCH STA 449F5                                      ;NETZSCH STA 449F5
#PROJECT:                    ;                                                       ;                                                       ;
#DATE/TIME:                  ;02.06.2023 15:33:05 (UTC+3)                            ;02.06.2023 11:56:02 (UTC+3)                            ;01.06.2023 16:25:35 (UTC+3)
#CORR. FILE:                 ;11.05.23_correction for composite-3kmin_30-500Ñ.ngb-bs5;10.05.23_correction for composite-5kmin_30-500Ñ.ngb-bs5;29.04.22_correction for composite-10kmin_30+500_N2-120.ngb-bs5
#TEMPCAL:                    ;3kmin-N2_washer+Al2O3+cover.ngb-ts5                    ;5kmin-N2_washer+Al2O3+cover.ngb-ts5                    ;10kmin-N2_washer+Al2O3+cover.ngb-ts5
#SENSITIVITY:                ;3kmin-N2_washer+Al2O3+cover.ngb-es5                    ;5kmin-N2_washer+Al2O3+cover.ngb-es5                    ;10kmin-N2_washer+Al2O3+cover.ngb-ts5.ngb-es5
#LABORATORY:                 ;                                                       ;                                                       ;
#OPERATOR:                   ;                                                       ;                                                       ;
#REMARK:                     ;                                                       ;                                                       ;
#SAMPLE:                     ;1                                                      ;1                                                      ;1
#SAMPLE MASS /mg:            ;19,8500                                                ;24,5625                                                ;17,6635
#MATERIAL:                   ;                                                       ;                                                       ;
#REFERENCE:                  ;                                                       ;                                                       ;
#REFERENCE MASS /mg:         ;0                                                      ;0                                                      ;0
#TYPE OF CRUCIBLE:           ;DSC/TG pan Al2O3                                       ;DSC/TG pan Al2O3                                       ;DSC/TG pan Al2O3
#SAMPLE CRUCIBLE MASS /mg:   ;0                                                      ;0                                                      ;0
#REFERENCE CRUCIBLE MASS /mg:;0                                                      ;0                                                      ;0
#DSC RANGE /µV:              ;5000                                                   ;5000                                                   ;5000
#TG RANGE /mg:               ;35000                                                  ;35000                                                  ;35000
#TAU-R:                      ;---                                                    ;---                                                    ;---
#CORR. CODE:                 ;020                                                    ;020                                                    ;020
#EXO:                        ;+1                                                     ;+1                                                     ;+1
#RANGE:                      ;30°C/3,0(K/min)/500°C                                  ;30°C/5,0(K/min)/500°C                                  ;30°C/10,0(K/min)/500°C
#SEGMENT:                    ;S1/1                                                   ;S1/1                                                   ;S1/1
#SEG. 1:                     ;30°C/3,0(K/min)/500°C                                  ;30°C/5,0(K/min)/500°C                                  ;30°C/10,0(K/min)/500°C

##Temp./°C;DSC/(µV/mg);DSC/(µV/mg);DSC/(µV/mg)
 30,06900;-1,295268e-002;-1,018806e-002;-1,926408e-002
 32,93375;-1,653260e-002;-1,577084e-002;-2,032830e-002
 35,79849;-1,935157e-002;-2,225240e-002;-2,470596e-002
 38,66324;-2,202894e-002;-2,744716e-002;-3,006832e-002
 41,52798;-2,456014e-002;-3,197176e-002;-3,495961e-002
 44,39273;-2,567978e-002;-3,518869e-002;-3,912946e-002
 47,25747;-2,727309e-002;-3,837969e-002;-4,290752e-002
 50,12222;-2,873570e-002;-4,036041e-002;-4,617352e-002
 52,98696;-2,931469e-002;-4,205663e-002;-4,864863e-002
 55,85171;-3,047791e-002;-4,340858e-002;-5,130146e-002
 58,71645;-3,102724e-002;-4,445201e-002;-5,344807e-002
 61,58120;-3,167067e-002;-4,502445e-002;-5,480801e-002
 64,44594;-3,163230e-002;-4,506994e-002;-5,571296e-002
 67,31069;-3,180096e-002;-4,513216e-002;-5,671033e-002
 70,17543;-3,142161e-002;-4,506964e-002;-5,639606e-002
 73,04018;-3,079904e-002;-4,444972e-002;-5,634737e-002
 75,90492;-3,032840e-002;-4,355350e-002;-5,576462e-002
 78,76967;-2,851935e-002;-4,188979e-002;-5,502840e-002
 81,63441;-2,710257e-002;-4,037490e-002;-5,365031e-002
 84,49916;-2,593391e-002;-3,884883e-002;-5,187512e-002
 87,36390;-2,407109e-002;-3,720054e-002;-5,032807e-002
 90,22865;-2,224018e-002;-3,486790e-002;-4,833380e-002
 93,09339;-2,031224e-002;-3,289386e-002;-4,556966e-002
 95,95814;-1,844531e-002;-2,981893e-002;-4,311071e-002
 98,82288;-1,594947e-002;-2,682296e-002;-4,059832e-002
101,68763;-1,356843e-002;-2,360599e-002;-3,710289e-002
104,55237;-1,101357e-002;-2,099864e-002;-3,346533e-002
107,41712;-8,437752e-003;-1,815673e-002;-2,953582e-002
110,28186;-5,546511e-003;-1,507030e-002;-2,627438e-002
113,14661;-3,073171e-003;-1,178912e-002;-2,220503e-002
116,01135;-2,526197e-005;-8,517692e-003;-1,831859e-002
118,87610; 2,902166e-003;-5,054389e-003;-1,436671e-002
121,74084; 6,610489e-003;-1,509150e-003;-9,386793e-003
124,60559; 9,767631e-003; 1,655962e-003;-4,224898e-003
127,47033; 1,319239e-002; 4,785524e-003; 4,457577e-005
130,33508; 1,738129e-002; 8,570540e-003; 4,581531e-003
133,19982; 1,889529e-002; 1,210027e-002; 9,200519e-003
136,06457; 2,130607e-002; 1,540533e-002; 1,437908e-002
138,92931; 2,127470e-002; 1,820155e-002; 1,930893e-002
[...]
313,67876; 8,864492e-002; 8,975650e-002;      -0,71932
316,54350; 6,726060e-002; 6,914815e-002;      -0,66671
319,40825; 4,423415e-002; 4,711474e-002;      -0,57362
322,27299; 1,941930e-002; 2,385221e-002;      -0,43379
325,13774;-6,101277e-003;-5,687719e-004;      -0,22436
328,00248;-3,094239e-002;-2,658681e-002;      -0,11033
330,86723;-5,213407e-002;-4,879686e-002;-7,505716e-002
333,73197;-6,163151e-002;-8,212608e-002;-8,177842e-002
336,59672;-4,232043e-002;      -0,11299;      -0,11226
339,46146;       0,17477;      -0,14431;      -0,15576
342,32621;       0,27063;      -0,17335;      -0,20847
345,19095;       0,28423;      -0,19724;      -0,26586
348,05570;       0,28339;      -0,21341;      -0,32677
350,92044;       0,28389;      -0,21768;      -0,39009
353,78519;       0,28080;      -0,20043;      -0,45319
356,64993;       0,27500;      -0,14303;      -0,51285
359,51468;       0,26668; 6,107983e-002;      -0,56432
362,37942;       0,25666;       0,16703;      -0,60537
365,24417;       0,24453;       0,19372;      -0,63594
368,10891;       0,23076;       0,19355;      -0,65292
370,97366;       0,21595;       0,18405;      -0,64783
373,83840;       0,20075;       0,17134;      -0,61607
376,70315;       0,18566;       0,15661;      -0,53608
379,56789;       0,17397;       0,13848;      -0,31931
382,43264;       0,23532;       0,11857;      -0,10860
385,29738;       0,26023; 9,717433e-002;-1,381257e-002
388,16213;       0,26882; 7,483666e-002; 2,055593e-002
391,02687;       0,27531; 5,193522e-002; 2,050233e-002
393,89162;       0,28172; 2,796634e-002; 1,233311e-003
396,75636;       0,28716; 5,912550e-003;-3,042059e-002
399,62111;       0,29273; 4,651989e-002;-6,832249e-002
402,48585;       0,29853;       0,10231;      -0,10822
405,35060;       0,30335;       0,12116;      -0,15201
408,21534;       0,30864;       0,12831;      -0,19779
411,08009;       0,31373;       0,13102;      -0,24280
413,94483;       0,31848;       0,13319;      -0,27474
416,80958;       0,32296;       0,13596;      -0,20466
419,67432;       0,32736;       0,13821;      -0,12962
422,53907;       0,33075;       0,14047;-8,997623e-002
425,40381;       0,33581;       0,14232;-6,809063e-002
428,26856;       0,34077;       0,14376;-5,603813e-002
431,13330;       0,34421;       0,14571;-4,814941e-002
433,99805;       0,34856;       0,14761;-4,241984e-002
436,86279;       0,35251;       0,14990;-3,938968e-002
439,72754;       0,35622;       0,15126;-3,831044e-002
442,59228;       0,36291;       0,15251;-3,730065e-002
445,45703;       0,36628;       0,15344;-3,630203e-002
448,32177;       0,36986;       0,15428;-3,585014e-002
451,18652;       0,37271;       0,15628;-3,494200e-002
454,05126;       0,37585;       0,15778;-3,452475e-002
456,91601;       0,37866;       0,15860;-3,317593e-002
459,78075;       0,38162;       0,15928;-3,189227e-002
462,64550;       0,38527;       0,16047;-3,127170e-002
465,51024;       0,38900;       0,16217;-3,049427e-002
468,37499;       0,39297;       0,16378;-3,047383e-002
471,23973;       0,39588;       0,16469;-3,032169e-002
474,10448;       0,39900;       0,16534;-3,075168e-002
476,96922;       0,40154;       0,16609;-3,111200e-002
479,83397;       0,40442;       0,16815;-2,924277e-002
482,69871;       0,40657;       0,17223;-2,888806e-002
485,56346;       0,40834;       0,17279;-2,790284e-002
488,42820;       0,41021;       0,17349;-2,807521e-002
491,29295;       0,41144;       0,17425;-2,730776e-002
494,15769;       0,41445;       0,17520;-2,721945e-002
497,02244;       0,41837;       0,17673;-2,677966e-002
497,97735;       0,41824;       0,17792;-2,677966e-002