Folder: isoconversion_study_of_reaction_kinetics/TGA (part 3)

File: NH4_TGA.csv
#EXPORTTYPE:                 ;DATA COMPARE                                           ;DATA COMPARE                                           ;DATA COMPARE
#FILE:                       ;27.07.23_NH4Cl_Õ×_5kmin_30-500Ñ.ngb-ds5                ;26.07.23_NH4Cl_Õ×_3kmin_30-500Ñ.ngb-ds5                ;26.07.23_NH4Cl_Õ×_10kmin_30-500Ñ.ngb-ds5
#FORMAT:                     ;NETZSCH5                                               ;NETZSCH5                                               ;NETZSCH5
#FTYPE:                      ;ANSI                                                   ;ANSI                                                   ;ANSI
#IDENTITY:                   ;NH4CL_Õ×                                               ;NH4Cl_X4                                               ;NH4Cl_Õ×
#DECIMAL:                    ;COMMA                                                  ;COMMA                                                  ;COMMA
#SEPARATOR:                  ;SEMICOLON                                              ;SEMICOLON                                              ;SEMICOLON
#MTYPE:                      ;TG                                                     ;TG                                                     ;TG
#INSTRUMENT:                 ;NETZSCH STA 449F5                                      ;NETZSCH STA 449F5                                      ;NETZSCH STA 449F5
#PROJECT:                    ;                                                       ;                                                       ;
#DATE/TIME:                  ;27.07.2023 11:48:33 (UTC+3)                            ;26.07.2023 13:34:14 (UTC+3)                            ;26.07.2023 10:30:10 (UTC+3)
#CORR. FILE:                 ;10.05.23_correction for composite-5kmin_30-500Ñ.ngb-bs5;11.05.23_correction for composite-3kmin_30-500Ñ.ngb-bs5;29.04.22_correction for composite-10kmin_30+500_N2-120.ngb-bs5
#TEMPCAL:                    ;5kmin-N2_washer+Al2O3+cover.ngb-ts5                    ;3kmin-N2_washer+Al2O3+cover.ngb-ts5                    ;10kmin-N2_washer+Al2O3+cover.ngb-ts5
#SENSITIVITY:                ;5kmin-N2_washer+Al2O3+cover.ngb-es5                    ;3kmin-N2_washer+Al2O3+cover.ngb-es5                    ;10kmin-N2_washer+Al2O3+cover.ngb-ts5.ngb-es5
#LABORATORY:                 ;                                                       ;                                                       ;
#OPERATOR:                   ;                                                       ;                                                       ;
#REMARK:                     ;                                                       ;                                                       ;
#SAMPLE:                     ;1                                                      ;1                                                      ;1
#SAMPLE MASS /mg:            ;22,8865                                                ;21,8907                                                ;23,8825
#MATERIAL:                   ;                                                       ;                                                       ;
#REFERENCE:                  ;                                                       ;                                                       ;
#REFERENCE MASS /mg:         ;0                                                      ;0                                                      ;0
#TYPE OF CRUCIBLE:           ;DSC/TG pan Al2O3                                       ;DSC/TG pan Al2O3                                       ;DSC/TG pan Al2O3
#SAMPLE CRUCIBLE MASS /mg:   ;0                                                      ;0                                                      ;0
#REFERENCE CRUCIBLE MASS /mg:;0                                                      ;0                                                      ;0
#DSC RANGE /µV:              ;5000                                                   ;5000                                                   ;5000
#TG RANGE /mg:               ;35000                                                  ;35000                                                  ;35000
#TAU-R:                      ;---                                                    ;---                                                    ;---
#CORR. CODE:                 ;020                                                    ;020                                                    ;020
#EXO:                        ;+1                                                     ;+1                                                     ;+1
#RANGE:                      ;30°C/5,0(K/min)/500°C                                  ;30°C/3,0(K/min)/500°C                                  ;30°C/10,0(K/min)/500°C
#SEGMENT:                    ;S1/1                                                   ;S1/1                                                   ;S1/1
#SEG. 1:                     ;30°C/5,0(K/min)/500°C                                  ;30°C/3,0(K/min)/500°C                                  ;30°C/10,0(K/min)/500°C

##Temp./°C;Mass/%;Mass/%;Mass/%
 30,27800;100,00000;     100,00000;100,00000
 33,14274;100,49727;      99,46862; 99,64153
 36,00749;100,49553;      99,47067; 99,67159
 38,87223;100,52128;      99,48353; 99,68218
 41,73698;100,49726;      99,47877; 99,69080
 44,60172;100,49337;      99,48014; 99,68903
 47,46647;100,51209;      99,48342; 99,70026
 50,33121;100,50912;      99,48889; 99,70773
 53,19596;100,50797;      99,47606; 99,70097
 56,06070;100,52127;      99,49524; 99,69343
 58,92545;100,50772;      99,50199; 99,69727
 61,79019;100,51209;      99,51169; 99,70270
 64,65494;100,51165;      99,51532; 99,70857
 67,51968;100,51033;      99,51303; 99,71397
 70,38443;100,50987;      99,50573; 99,69667
 73,24917;100,50209;      99,52174; 99,69390
 76,11392;100,51362;      99,51669; 99,70996
 78,97866;100,50323;      99,52537; 99,71946
 81,84341;100,49978;      99,53496; 99,70359
 84,70815;100,50420;      99,52401; 99,71234
 87,57290;100,50738;      99,51166; 99,71433
 90,43764;100,51012;      99,52583; 99,72162
 93,30239;100,50603;      99,53496; 99,72825
 96,16713;100,51166;      99,53405; 99,72883
 99,03188;100,52083;      99,52483; 99,71778
101,89662;100,51823;      99,54275; 99,71360
104,76137;100,52432;      99,53855; 99,72157
107,62611;100,53569;      99,52628; 99,71995
110,49086;100,51691;      99,54090; 99,71523
113,35560;100,51209;      99,53405; 99,72332
116,22035;100,50729;      99,54039; 99,72447
119,08509;100,49633;      99,53816; 99,72239
121,94984;100,49680;      99,53079; 99,72781
124,81458;100,49461;      99,50984; 99,73244
127,67933;100,48937;      99,51258; 99,73747
130,54407;100,48806;      99,51486; 99,72995
133,40882;100,48195;      99,51669; 99,72825
136,27356;100,47408;      99,49842; 99,72296
139,13831;100,47320;      99,50983; 99,72407
142,00305;100,46228;      99,50710; 99,73662
144,86780;100,46184;      99,49385; 99,73872
147,73254;100,46184;      99,49328; 99,73035
150,59729;100,44786;      99,50299; 99,72700
153,46203;100,44655;      99,49255; 99,73663
156,32678;100,44349;      99,47329; 99,73362
159,19152;100,43911;      99,47101; 99,73035
162,05627;100,42733;      99,45735; 99,72825
164,92101;100,41597;      99,43046; 99,72825
167,78576;100,39630;      99,40477; 99,72825
[...]
270,91658; 91,17711;      82,97344; 95,48835
273,78132; 90,13767;      81,12605; 94,95677
276,64607; 88,99158;      79,12811; 94,40691
279,51081; 87,73168;      76,91380; 93,76714
282,37556; 86,33202;      74,47291; 93,10613
285,24030; 84,83301;      71,77826; 92,34125
288,10505; 83,17704;      68,89053; 91,50468
290,96979; 81,33636;      65,73334; 90,59359
293,83454; 79,36293;      62,31771; 89,58747
296,69928; 77,20094;      58,62307; 88,47506
299,56403; 74,86239;      54,56900; 87,30701
302,42877; 72,32263;      50,40399; 85,96928
305,29352; 69,56792;      45,70633; 84,57764
308,15826; 66,56911;      40,92822; 83,01113
311,02301; 63,37051;      35,92921; 81,32755
313,88775; 59,92364;      30,63379; 79,50309
316,75250; 56,26168;      25,31746; 77,53242
319,61724; 52,36078;      19,97786; 75,37068
322,48199; 48,24276;      14,97925; 73,04978
325,34673; 43,76446;      10,50329; 70,59556
328,21148; 39,04194;       7,88017; 67,93341
331,07622; 34,26682;       7,77546; 65,11932
333,94097; 29,38350;       7,50004; 62,09445
336,80571; 24,41698;       7,11347; 58,67605
339,67046; 19,51803;       6,72612; 55,37981
342,53520; 14,76327;       6,32646; 51,96083
345,39995; 10,68219;       5,92218; 48,16242
348,26469;  9,13682;       5,50408; 44,30513
351,12944;  9,13987;       5,09316; 40,33651
353,99418;  8,95093;       4,69208; 36,18157
356,85893;  8,62869;       4,27547; 32,02870
359,72367;  8,27337;       3,79537; 27,84142
362,58842;  7,87573;       3,28231; 23,53881
365,45316;  7,48592;       2,75685; 19,25607
368,31791;  7,07408;       2,18312; 15,19325
371,18265;  6,66604;       1,62238; 11,77803
374,04740;  6,28256;       1,06495;  9,36120
376,91214;  5,89126;       0,55927;  8,88475
379,77689;  5,50019;       0,12426;  8,88681
382,64163;  5,06069;      -0,18874;  8,79906
385,50638;  4,62717;      -0,23115;  8,58996
388,37112;  4,13487;      -0,22000;  8,34591
391,23587;  3,64770;      -0,25125;  8,09501
394,10061;  3,16100;      -0,26356;  7,82590
396,96536;  2,66559;      -0,26449;  7,54717
399,83010;  2,18703;      -0,27407;  7,25330
402,69485;  1,71749;      -0,28231;  6,97334
405,55959;  1,30841;      -0,28779;  6,67719
408,42434;  0,95683;      -0,27500;  6,36890
411,28908;  0,69172;      -0,28731;  6,03604
414,15383;  0,59564;      -0,27820;  5,66778
417,01857;  0,56321;      -0,28688;  5,32545
419,88332;  0,56234;      -0,29144;  4,93230
422,74806;  0,56016;      -0,29510;  4,54829
425,61281;  0,55490;      -0,29281;  4,10804
428,47755;  0,55758;      -0,31566;  3,68318
431,34230;  0,54923;      -0,32241;  3,30224
434,20704;  0,54792;      -0,31612;  2,86611
437,07179;  0,54486;      -0,32617;  2,44453
439,93653;  0,54486;      -0,33073;  2,03975
442,80128;  0,54355;      -0,32571;  1,62702
445,66602;  0,54880;      -0,32434;  1,28976
448,53077;  0,53525;      -0,32196;  0,96804
451,39551;  0,53529;      -0,33839;  0,67097
454,26026;  0,54137;      -0,34307;  0,44532
457,12500;  0,54051;      -0,34444;  0,29361
459,98975;  0,53831;      -0,33896;  0,23330
462,85449;  0,55011;      -0,34764;  0,21564
465,71924;  0,55448;      -0,34533;  0,21480
468,58398;  0,55579;      -0,33804;  0,22489
471,44873;  0,54967;      -0,35175;  0,22653
474,31347;  0,54880;      -0,35266;  0,22611
477,17822;  0,54268;      -0,34901;  0,22526
480,04296;  0,54748;      -0,34581;  0,22694
482,90771;  0,55753;      -0,35677;  0,23699
485,77245;  0,55588;      -0,35816;  0,24662
488,63720;  0,54792;      -0,34124;  0,24950
491,50194;  0,54486;      -0,35997;  0,25207
494,36669;  0,54784;      -0,35920;  0,25374
497,23143;  0,54006;      -0,35220;  0,25039
498,18635;  0,54093;      -0,36151;  0,25039