Folder: isoconversion_study_of_reaction_kinetics/TGA (part 2)

File: Er_TGA.csv
#EXPORTTYPE:                 ;DATA COMPARE                                           ;DATA COMPARE                                           ;DATA COMPARE
#FILE:                       ;08.06.23_ Er_2+4_3kmin_30+500_N2-120.ngb-ds5           ;05.06.23_ Er_2+4_5kmin_30+500_N2-120.ngb-ds5           ;07.06.23_ Er_2+4_10kmin_30+500_N2-120.ngb-ds5
#FORMAT:                     ;NETZSCH5                                               ;NETZSCH5                                               ;NETZSCH5
#FTYPE:                      ;ANSI                                                   ;ANSI                                                   ;ANSI
#IDENTITY:                   ;Er_2+4                                                 ;Er_2+4                                                 ;Er_2+4
#DECIMAL:                    ;COMMA                                                  ;COMMA                                                  ;COMMA
#SEPARATOR:                  ;SEMICOLON                                              ;SEMICOLON                                              ;SEMICOLON
#MTYPE:                      ;TG                                                     ;TG                                                     ;TG
#INSTRUMENT:                 ;NETZSCH STA 449F5                                      ;NETZSCH STA 449F5                                      ;NETZSCH STA 449F5
#PROJECT:                    ;                                                       ;                                                       ;
#DATE/TIME:                  ;08.06.2023 10:38:22 (UTC+3)                            ;05.06.2023 15:35:50 (UTC+3)                            ;07.06.2023 11:37:24 (UTC+3)
#CORR. FILE:                 ;11.05.23_correction for composite-3kmin_30-500Ñ.ngb-bs5;10.05.23_correction for composite-5kmin_30-500Ñ.ngb-bs5;29.04.22_correction for composite-10kmin_30+500_N2-120.ngb-bs5
#TEMPCAL:                    ;3kmin-N2_washer+Al2O3+cover.ngb-ts5                    ;5kmin-N2_washer+Al2O3+cover.ngb-ts5                    ;10kmin-N2_washer+Al2O3+cover.ngb-ts5
#SENSITIVITY:                ;3kmin-N2_washer+Al2O3+cover.ngb-es5                    ;5kmin-N2_washer+Al2O3+cover.ngb-es5                    ;10kmin-N2_washer+Al2O3+cover.ngb-ts5.ngb-es5
#LABORATORY:                 ;                                                       ;                                                       ;
#OPERATOR:                   ;                                                       ;                                                       ;
#REMARK:                     ;                                                       ;                                                       ;
#SAMPLE:                     ;1                                                      ;1                                                      ;1
#SAMPLE MASS /mg:            ;33,686                                                 ;21,38                                                  ;30,5855
#MATERIAL:                   ;                                                       ;                                                       ;
#REFERENCE:                  ;                                                       ;                                                       ;
#REFERENCE MASS /mg:         ;0                                                      ;0                                                      ;0
#TYPE OF CRUCIBLE:           ;DSC/TG pan Al2O3                                       ;DSC/TG pan Al2O3                                       ;DSC/TG pan Al2O3
#SAMPLE CRUCIBLE MASS /mg:   ;0                                                      ;0                                                      ;0
#REFERENCE CRUCIBLE MASS /mg:;0                                                      ;0                                                      ;0
#DSC RANGE /µV:              ;5000                                                   ;5000                                                   ;5000
#TG RANGE /mg:               ;35000                                                  ;35000                                                  ;35000
#TAU-R:                      ;---                                                    ;---                                                    ;---
#CORR. CODE:                 ;020                                                    ;020                                                    ;020
#EXO:                        ;+1                                                     ;+1                                                     ;+1
#RANGE:                      ;30°C/3,0(K/min)/500°C                                  ;30°C/5,0(K/min)/500°C                                  ;30°C/10,0(K/min)/500°C
#SEGMENT:                    ;S1/1                                                   ;S1/1                                                   ;S1/1
#SEG. 1:                     ;30°C/3,0(K/min)/500°C                                  ;30°C/5,0(K/min)/500°C                                  ;30°C/10,0(K/min)/500°C

##Temp./°C;Mass/%;Mass/%;Mass/%
 30,66100;100,00000;100,00000;100,00000
 32,57083; 99,66054;100,39353; 99,62108
 34,48066; 99,67105;100,39527; 99,63218
 36,39049; 99,68566;100,39112; 99,64989
 38,30032; 99,69633;100,40653; 99,64947
 40,21015; 99,69202;100,40833; 99,65572
 42,11998; 99,68860;100,39990; 99,65735
 44,02981; 99,71394;100,40692; 99,65290
 45,93964; 99,71100;100,39825; 99,65686
 47,84947; 99,72071;100,40510; 99,66812
 49,75930; 99,72179;100,41719; 99,66375
 51,66913; 99,71800;100,41587; 99,66847
 53,57896; 99,72387;100,41120; 99,67040
 55,48879; 99,73312;100,41300; 99,65931
 57,39862; 99,73386;100,42002; 99,66621
 59,30845; 99,73609;100,41588; 99,67501
 61,21828; 99,74114;100,40974; 99,66849
 63,12811; 99,75558;100,40787; 99,67901
 65,03794; 99,75362;100,40366; 99,67755
 66,94777; 99,76103;100,40832; 99,67430
 68,85760; 99,76135;100,41395; 99,67006
 70,76743; 99,76073;100,41955; 99,66715
 72,67726; 99,77107;100,40425; 99,66911
 74,58709; 99,77023;100,40318; 99,66657
 76,49692; 99,76489;100,39160; 99,67338
 78,40675; 99,76548;100,38349; 99,67861
 80,31658; 99,76964;100,38868; 99,68023
 82,22641; 99,77467;100,38447; 99,67535
 84,13624; 99,76490;100,38211; 99,67866
 86,04607; 99,76431;100,37604; 99,67666
 87,95590; 99,76429;100,37322; 99,67172
 89,86573; 99,76429;100,37278; 99,66806
 91,77556; 99,76340;100,36852; 99,66422
 93,68539; 99,76192;100,36997; 99,66667
 95,59522; 99,76489;100,37558; 99,66847
 97,50505; 99,76192;100,38400; 99,65407
 99,41488; 99,76480;100,38447; 99,65670
101,32471; 99,76637;100,38026; 99,65710
103,23454; 99,76220;100,38915; 99,65541
105,14437; 99,76518;100,38872; 99,64816
107,05420; 99,76667;100,38962; 99,64656
108,96403; 99,76518;100,37881; 99,63804
110,87386; 99,76578;100,36538; 99,63054
112,78369; 99,76281;100,36293; 99,62891
114,69352; 99,76251;100,35548; 99,63152
116,60335; 99,76471;100,35407; 99,63185
118,51318; 99,76222;100,34501; 99,62988
120,42301; 99,75984;100,33068; 99,62793
122,33284; 99,75865;100,32507; 99,62891
124,24267; 99,75094;100,32181; 99,63572
126,15250; 99,74975;100,31852; 99,64003
128,06233; 99,75390;100,31431; 99,63676
129,97216; 99,75390;100,31151; 99,62696
131,88199; 99,75729;100,30730; 99,62335
133,79182; 99,75059;100,29423; 99,62204
[...]
326,68465; 53,33040; 58,83261; 66,05847
328,59448; 52,73813; 58,18191; 65,08531
330,50431; 52,12545; 57,47904; 64,17113
332,41414; 51,48845; 56,79856; 63,34056
334,32397; 50,79793; 56,10666; 62,58093
336,23380; 50,09325; 55,34161; 61,91715
338,14363; 49,35175; 54,55461; 61,31155
340,05346; 48,57990; 53,74971; 60,74990
341,96329; 47,77409; 52,90892; 60,18083
343,87312; 46,95900; 52,03114; 59,58946
345,78295; 46,11108; 51,12518; 58,97511
347,69278; 45,24403; 50,20126; 58,33498
349,60261; 44,39947; 49,24290; 57,66212
351,51244; 43,59184; 48,27037; 56,96816
353,42227; 42,88339; 47,31972; 56,24422
355,33210; 42,52887; 46,38574; 55,49484
357,24193; 42,41625; 45,53172; 54,72959
359,15176; 42,27116; 44,93269; 53,94402
361,06159; 42,08385; 44,81282; 53,14531
362,97142; 41,89556; 44,68764; 52,31722
364,88125; 41,68939; 44,49523; 51,46331
366,79108; 41,46173; 44,27373; 50,62332
368,70091; 41,23737; 44,03471; 49,77690
370,61074; 40,98837; 43,77430; 48,93840
372,52057; 40,72726; 43,52255; 48,11148
374,43040; 40,45631; 43,24909; 47,30815
376,34023; 40,17636; 42,95453; 46,51509
378,25006; 39,88277; 42,64512; 45,79547
380,15989; 39,58207; 42,32227; 45,11578
382,06972; 39,27804; 41,99929; 44,51659
383,97955; 38,98727; 41,67506; 44,01726
385,88938; 38,76567; 41,31928; 43,68785
387,79921; 38,73332; 40,98250; 43,45149
389,70904; 38,71371; 40,85408; 43,18290
391,61887; 38,69946; 40,82424; 42,88850
393,52870; 38,67601; 40,82039; 42,59056
395,43853; 38,66235; 40,78530; 42,28694
397,34836; 38,65196; 40,75376; 41,97726
399,25819; 38,63890; 40,73858; 41,63599
401,16802; 38,63093; 40,70917; 41,32813
403,07785; 38,61401; 40,70630; 41,00362
404,98768; 38,59129; 40,67778; 40,67013
406,89751; 38,58784; 40,65424; 40,34528
408,80734; 38,56958; 40,62605; 40,05237
410,71717; 38,55521; 40,60335; 39,91546
412,62700; 38,54153; 40,58793; 39,89627
414,53683; 38,52507; 40,55799; 39,89073
416,44666; 38,51511; 40,53460; 39,87219
418,35649; 38,49702; 40,51402; 39,85166
420,26632; 38,48065; 40,48082; 39,84630
422,17615; 38,45871; 40,46209; 39,82414
424,08598; 38,43615; 40,44111; 39,80545
425,99581; 38,42843; 40,41020; 39,78818
427,90564; 38,41303; 40,39009; 39,77048
429,81547; 38,39758; 40,36988; 39,75412
431,72530; 38,38066; 40,33612; 39,75274
433,63513; 38,35633; 40,29930; 39,74431
435,54496; 38,33754; 40,27512; 39,71722
437,45479; 38,31384; 40,25219; 39,69986
439,36462; 38,29173; 40,21234; 39,68322
441,27445; 38,27436; 40,19873; 39,66554
443,18428; 38,25786; 40,16413; 39,65173
445,09411; 38,24230; 40,13018; 39,63905
447,00394; 38,23248; 40,10698; 39,62477
448,91377; 38,21194; 40,07236; 39,61387
450,82360; 38,19391; 40,03447; 39,59985
452,73343; 38,18025; 40,02008; 39,58673
454,64326; 38,16389; 39,98015; 39,56944
456,55309; 38,14372; 39,92985; 39,54913
458,46292; 38,13370; 39,89466; 39,54189
460,37275; 38,11104; 39,88576; 39,52680
462,28258; 38,09777; 39,85594; 39,50844
464,19241; 38,08407; 39,83249; 39,49224
466,10224; 38,06649; 39,81238; 39,46881
468,01207; 38,05201; 39,77447; 39,45749
469,92190; 38,03479; 39,75528; 39,44969
471,83173; 38,01041; 39,73526; 39,43032
473,74156; 37,99588; 39,71050; 39,40658
475,65139; 37,98370; 39,67866; 39,38929
477,56122; 37,97245; 39,65903; 39,37613
479,47105; 37,96265; 39,63302; 39,35102
481,38088; 37,93476; 39,61694; 39,33297
483,29071; 37,92110; 39,59981; 39,32648
485,20054; 37,89558; 39,56779; 39,30730
487,11037; 37,88844; 39,53511; 39,28525
489,02020; 37,88636; 39,51075; 39,26502
490,93003; 37,87258; 39,47474; 39,24622
492,83986; 37,86062; 39,46307; 39,22110
494,74969; 37,84212; 39,43873; 39,20059
496,65952; 37,82848; 39,42431; 39,18523
497,61443; 37,82146; 39,41721; 39,18523

File: Gd_TGA.csv
#EXPORTTYPE:                 ;DATA COMPARE                                                   ;DATA COMPARE                                           ;DATA COMPARE
#FILE:                       ;24.05.23_ Gd_2+4_10kmin_30+1000_N2-120.ngb-ds5                 ;12.05.23_ Gd_2+4_3kmin_30+500_N2-120.ngb-ds5           ;12.05.23_ Gd_2+4_5kmin_30+500_N2-120.ngb-ds5
#FORMAT:                     ;NETZSCH5                                                       ;NETZSCH5                                               ;NETZSCH5
#FTYPE:                      ;ANSI                                                           ;ANSI                                                   ;ANSI
#IDENTITY:                   ;Gd_2+4                                                         ;Gd_2+4                                                 ;Gd_2+4
#DECIMAL:                    ;COMMA                                                          ;COMMA                                                  ;COMMA
#SEPARATOR:                  ;SEMICOLON                                                      ;SEMICOLON                                              ;SEMICOLON
#MTYPE:                      ;TG                                                             ;TG                                                     ;TG
#INSTRUMENT:                 ;NETZSCH STA 449F5                                              ;NETZSCH STA 449F5                                      ;NETZSCH STA 449F5
#PROJECT:                    ;                                                               ;                                                       ;
#DATE/TIME:                  ;24.05.2023 16:54:46 (UTC+3)                                    ;12.05.2023 11:55:38 (UTC+3)                            ;26.05.2023 11:21:43 (UTC+3)
#CORR. FILE:                 ;18.03.22_correction for composite-10kmin_40+1000_N2-120.ngb-bs5;11.05.23_correction for composite-3kmin_30-500Ñ.ngb-bs5;10.05.23_correction for composite-5kmin_30-500Ñ.ngb-bs5
#TEMPCAL:                    ;10kmin-N2_washer+Al2O3+cover.ngb-ts5                           ;3kmin-N2_washer+Al2O3+cover.ngb-ts5                    ;5kmin-N2_washer+Al2O3+cover.ngb-ts5
#SENSITIVITY:                ;10kmin-N2_washer+Al2O3+cover.ngb-ts5.ngb-es5                   ;3kmin-N2_washer+Al2O3+cover.ngb-es5                    ;5kmin-N2_washer+Al2O3+cover.ngb-es5
#LABORATORY:                 ;                                                               ;                                                       ;
#OPERATOR:                   ;                                                               ;                                                       ;
#REMARK:                     ;                                                               ;                                                       ;
#SAMPLE:                     ;1                                                              ;1                                                      ;1
#SAMPLE MASS /mg:            ;20,4395                                                        ;24,6870                                                ;19,9405
#MATERIAL:                   ;                                                               ;                                                       ;
#REFERENCE:                  ;                                                               ;                                                       ;
#REFERENCE MASS /mg:         ;0                                                              ;0                                                      ;0
#TYPE OF CRUCIBLE:           ;DSC/TG pan Al2O3                                               ;DSC/TG pan Al2O3                                       ;DSC/TG pan Al2O3
#SAMPLE CRUCIBLE MASS /mg:   ;0                                                              ;0                                                      ;0
#REFERENCE CRUCIBLE MASS /mg:;0                                                              ;0                                                      ;0
#DSC RANGE /µV:              ;5000                                                           ;5000                                                   ;5000
#TG RANGE /mg:               ;35000                                                          ;35000                                                  ;35000
#TAU-R:                      ;---                                                            ;---                                                    ;---
#CORR. CODE:                 ;020                                                            ;020                                                    ;020
#EXO:                        ;+1                                                             ;+1                                                     ;+1
#RANGE:                      ;25°C/10,0(K/min)/1000°C                                        ;30°C/3,0(K/min)/500°C                                  ;30°C/5,0(K/min)/500°C
#SEGMENT:                    ;S1/2                                                           ;S1/1                                                   ;S1/1
#SEG. 1:                     ;25°C/10,0(K/min)/1000°C                                        ;30°C/3,0(K/min)/500°C                                  ;30°C/5,0(K/min)/500°C

##Temp./°C;Mass/%;Mass/%;Mass/%
 24,97800;100,00000;         ;
 28,79766; 99,31947;100,00000;100,00000
 32,61732; 99,34972;100,10937;100,24122
 36,43698; 99,33029;100,15717;100,11034
 40,25664; 99,32239;100,20663;100,07368
 44,07630; 99,32887;100,23454;100,00962
 47,89596; 99,31799;100,25321; 99,96438
 51,71562; 99,31019;100,26934; 99,90463
 55,53528; 99,32092;100,29692; 99,87005
 59,35494; 99,32334;100,31110; 99,81591
 63,17460; 99,32044;100,34188; 99,76730
 66,99426; 99,30882;100,34671; 99,72145
 70,81392; 99,30133;100,37022; 99,68707
 74,63358; 99,29942;100,38971; 99,62940
 78,45324; 99,30400;100,39859; 99,56621
 82,27290; 99,28763;100,40841; 99,52709
 86,09256; 99,30330;100,40628; 99,48045
 89,91222; 99,29940;100,43100; 99,43784
 93,73188; 99,29443;100,44882; 99,40249
 97,55154; 99,28716;100,46947; 99,36059
101,37120; 99,28285;100,48609; 99,32030
105,19086; 99,28231;100,49215; 99,27835
109,01052; 99,26368;100,50677; 99,22742
112,83018; 99,25358;100,51157; 99,15937
116,64984; 99,25585;100,53672; 99,10337
120,46950; 99,25193;100,54847; 99,05138
124,28916; 99,24411;100,55518; 99,00209
128,10882; 99,23108;100,57480; 98,95390
131,92848; 99,22063;100,58982; 98,90825
135,74814; 99,21089;100,58087; 98,85566
139,56780; 99,20254;100,58168; 98,80001
143,38746; 99,18785;100,56264; 98,74425
147,20712; 99,18149;100,55495; 98,68657
151,02678; 99,17104;100,52820; 98,61250
154,84644; 99,15115;100,50512; 98,54220
158,66610; 99,12418;100,44315; 98,46975
162,48576; 99,10027;100,34549; 98,37326
166,30542; 99,05869;100,19448; 98,27888
170,12508; 99,02635;100,01840; 98,14832
173,94474; 98,96626; 99,81103; 97,97759
177,76440; 98,91102; 99,54210; 97,79395
181,58406; 98,80604; 99,21334; 97,56627
185,40372; 98,68974; 98,80404; 97,32085
189,22338; 98,51633; 98,30549; 97,04725
193,04304; 98,36371; 97,74574; 96,71777
196,86270; 98,18023; 97,13396; 96,35225
200,68236; 97,96592; 96,41119; 95,91051
204,50202; 97,66539; 95,60719; 95,43303
208,32168; 97,33520; 94,63622; 94,86225
[...]
552,09108; 42,97463;         ;
555,91074; 42,89770;         ;
559,73040; 42,81832;         ;
563,55006; 42,75396;         ;
567,36972; 42,68133;         ;
571,18938; 42,63423;         ;
575,00904; 42,56530;         ;
578,82870; 42,48571;         ;
582,64836; 42,43021;         ;
586,46802; 42,36669;         ;
590,28768; 42,31075;         ;
594,10734; 42,24953;         ;
597,92700; 42,19084;         ;
601,74666; 42,12490;         ;
605,56632; 42,06365;         ;
609,38598; 42,01379;         ;
613,20564; 41,96327;         ;
617,02530; 41,90775;         ;
620,84496; 41,83864;         ;
624,66462; 41,78862;         ;
628,48428; 41,74075;         ;
632,30394; 41,67088;         ;
636,12360; 41,60967;         ;
639,94326; 41,55176;         ;
643,76292; 41,49492;         ;
647,58258; 41,43403;         ;
651,40224; 41,36772;         ;
655,22190; 41,29989;         ;
659,04156; 41,23288;         ;
662,86122; 41,17562;         ;
666,68088; 41,12772;         ;
670,50054; 41,07094;         ;
674,32020; 41,00698;         ;
678,13986; 40,95802;         ;
681,95952; 40,90069;         ;
685,77918; 40,83604;         ;
689,59884; 40,77492;         ;
693,41850; 40,72211;         ;
697,23816; 40,67093;         ;
701,05782; 40,61034;         ;
704,87748; 40,55384;         ;
708,69714; 40,48883;         ;
712,51680; 40,42027;         ;
716,33646; 40,38165;         ;
720,15612; 40,32250;         ;
723,97578; 40,26421;         ;
727,79544; 40,20021;         ;
731,61510; 40,14334;         ;
735,43476; 40,08452;         ;
739,25442; 40,04057;         ;
743,07408; 39,97688;         ;
746,89374; 39,92268;         ;
750,71340; 39,88159;         ;
754,53306; 39,84099;         ;
758,35272; 39,77443;         ;
762,17238; 39,71112;         ;
765,99204; 39,66046;         ;
769,81170; 39,61741;         ;
773,63136; 39,54309;         ;
777,45102; 39,48630;         ;
781,27068; 39,43099;         ;
785,09034; 39,37035;         ;
788,91000; 39,32739;         ;
792,72966; 39,28611;         ;
796,54932; 39,22851;         ;
800,36898; 39,16338;         ;
804,18864; 39,10092;         ;
808,00830; 39,03486;         ;
811,82796; 38,98921;         ;
815,64762; 38,93433;         ;
819,46728; 38,88487;         ;
823,28694; 38,83236;         ;
827,10660; 38,77633;         ;
830,92626; 38,69757;         ;
834,74592; 38,64800;         ;
838,56558; 38,58070;         ;
842,38524; 38,52525;         ;
846,20490; 38,46573;         ;
850,02456; 38,40983;         ;
853,84422; 38,34470;         ;
857,66388; 38,29164;         ;
861,48354; 38,23234;         ;
865,30320; 38,19899;         ;
869,12286; 38,13698;         ;
872,94252; 38,08891;         ;
876,76218; 38,04106;         ;
880,58184; 37,97610;         ;
884,40150; 37,93346;         ;
888,22116; 37,88599;         ;
892,04082; 37,82969;         ;
895,86048; 37,78224;         ;
899,68014; 37,72747;         ;
903,49980; 37,66904;         ;
907,31946; 37,64611;         ;
911,13912; 37,59900;         ;
914,95878; 37,55674;         ;
918,77844; 37,49603;         ;
922,59810; 37,44069;         ;
926,41776; 37,39348;         ;
930,23742; 37,35651;         ;
934,05708; 37,30384;         ;
937,87674; 37,24917;         ;
941,69640; 37,21225;         ;
945,51606; 37,16462;         ;
949,33572; 37,11202;         ;
953,15538; 37,07283;         ;
956,97504; 37,03612;         ;
960,79470; 36,98308;         ;
964,61436; 36,95776;         ;
968,43402; 36,90354;         ;
972,25368; 36,84767;         ;
976,07334; 36,79393;         ;
979,89300; 36,74747;         ;
983,71266; 36,69834;         ;
987,53232; 36,63641;         ;
991,35198; 36,57088;         ;
995,17164; 36,51743;         ;
996,12656; 36,50268;         ;