Folder: isoconversion_study_of_reaction_kinetics/src/DSC (part 2)

File: NH4_DSC.csv
#EXPORTTYPE:                 ;DATA COMPARE                                           ;DATA COMPARE                                           ;DATA COMPARE
#FILE:                       ;27.07.23_NH4Cl_Õ×_5kmin_30-500Ñ.ngb-ds5                ;26.07.23_NH4Cl_Õ×_3kmin_30-500Ñ.ngb-ds5                ;26.07.23_NH4Cl_Õ×_10kmin_30-500Ñ.ngb-ds5
#FORMAT:                     ;NETZSCH5                                               ;NETZSCH5                                               ;NETZSCH5
#FTYPE:                      ;ANSI                                                   ;ANSI                                                   ;ANSI
#IDENTITY:                   ;NH4CL_Õ×                                               ;NH4Cl_X4                                               ;NH4Cl_Õ×
#DECIMAL:                    ;COMMA                                                  ;COMMA                                                  ;COMMA
#SEPARATOR:                  ;SEMICOLON                                              ;SEMICOLON                                              ;SEMICOLON
#MTYPE:                      ;DSC                                                    ;DSC                                                    ;DSC
#INSTRUMENT:                 ;NETZSCH STA 449F5                                      ;NETZSCH STA 449F5                                      ;NETZSCH STA 449F5
#PROJECT:                    ;                                                       ;                                                       ;
#DATE/TIME:                  ;27.07.2023 11:48:33 (UTC+3)                            ;26.07.2023 13:34:14 (UTC+3)                            ;26.07.2023 10:30:10 (UTC+3)
#CORR. FILE:                 ;10.05.23_correction for composite-5kmin_30-500Ñ.ngb-bs5;11.05.23_correction for composite-3kmin_30-500Ñ.ngb-bs5;29.04.22_correction for composite-10kmin_30+500_N2-120.ngb-bs5
#TEMPCAL:                    ;5kmin-N2_washer+Al2O3+cover.ngb-ts5                    ;3kmin-N2_washer+Al2O3+cover.ngb-ts5                    ;10kmin-N2_washer+Al2O3+cover.ngb-ts5
#SENSITIVITY:                ;5kmin-N2_washer+Al2O3+cover.ngb-es5                    ;3kmin-N2_washer+Al2O3+cover.ngb-es5                    ;10kmin-N2_washer+Al2O3+cover.ngb-ts5.ngb-es5
#LABORATORY:                 ;                                                       ;                                                       ;
#OPERATOR:                   ;                                                       ;                                                       ;
#REMARK:                     ;                                                       ;                                                       ;
#SAMPLE:                     ;1                                                      ;1                                                      ;1
#SAMPLE MASS /mg:            ;22,8865                                                ;21,8907                                                ;23,8825
#MATERIAL:                   ;                                                       ;                                                       ;
#REFERENCE:                  ;                                                       ;                                                       ;
#REFERENCE MASS /mg:         ;0                                                      ;0                                                      ;0
#TYPE OF CRUCIBLE:           ;DSC/TG pan Al2O3                                       ;DSC/TG pan Al2O3                                       ;DSC/TG pan Al2O3
#SAMPLE CRUCIBLE MASS /mg:   ;0                                                      ;0                                                      ;0
#REFERENCE CRUCIBLE MASS /mg:;0                                                      ;0                                                      ;0
#DSC RANGE /µV:              ;5000                                                   ;5000                                                   ;5000
#TG RANGE /mg:               ;35000                                                  ;35000                                                  ;35000
#TAU-R:                      ;---                                                    ;---                                                    ;---
#CORR. CODE:                 ;020                                                    ;020                                                    ;020
#EXO:                        ;+1                                                     ;+1                                                     ;+1
#RANGE:                      ;30°C/5,0(K/min)/500°C                                  ;30°C/3,0(K/min)/500°C                                  ;30°C/10,0(K/min)/500°C
#SEGMENT:                    ;S1/1                                                   ;S1/1                                                   ;S1/1
#SEG. 1:                     ;30°C/5,0(K/min)/500°C                                  ;30°C/3,0(K/min)/500°C                                  ;30°C/10,0(K/min)/500°C

##Temp./°C;DSC/(mW/mg);DSC/(mW/mg);DSC/(mW/mg)
 30,27800;-8,425385e-003;-1,012354e-002;-1,177243e-002
 33,14274;-3,625567e-002;-3,340482e-002;-5,185220e-002
 36,00749;-5,554581e-002;-4,646013e-002;-8,226274e-002
 38,87223;-7,155764e-002;-5,612865e-002;      -0,10747
 41,73698;-8,486320e-002;-6,405051e-002;      -0,13028
 44,60172;-9,539767e-002;-7,034692e-002;      -0,15056
 47,46647;      -0,10462;-7,462338e-002;      -0,16985
 50,33121;      -0,11266;-7,872701e-002;      -0,18657
 53,19596;      -0,11892;-8,163724e-002;      -0,20188
 56,06070;      -0,12403;-8,400882e-002;      -0,21607
 58,92545;      -0,12901;-8,546313e-002;      -0,22896
 61,79019;      -0,13225;-8,712228e-002;      -0,24022
 64,65494;      -0,13502;-8,793283e-002;      -0,25051
 67,51968;      -0,13721;-8,791362e-002;      -0,25976
 70,38443;      -0,13899;-8,811031e-002;      -0,26901
 73,24917;      -0,13993;-8,827833e-002;      -0,27637
 76,11392;      -0,14035;-8,744758e-002;      -0,28315
 78,97866;      -0,14055;-8,691986e-002;      -0,28941
 81,84341;      -0,14013;-8,618696e-002;      -0,29462
 84,70815;      -0,13974;-8,503224e-002;      -0,29940
 87,57290;      -0,13876;-8,363479e-002;      -0,30356
 90,43764;      -0,13751;-8,215541e-002;      -0,30687
 93,30239;      -0,13635;-8,051992e-002;      -0,30934
 96,16713;      -0,13409;-7,890776e-002;      -0,31202
 99,03188;      -0,13193;-7,675579e-002;      -0,31350
101,89662;      -0,13001;-7,570925e-002;      -0,31487
104,76137;      -0,12748;-7,396742e-002;      -0,31523
107,62611;      -0,12519;-7,187471e-002;      -0,31528
110,49086;      -0,12219;-6,991539e-002;      -0,31575
113,35560;      -0,11909;-6,811294e-002;      -0,31519
116,22035;      -0,11600;-6,671619e-002;      -0,31454
119,08509;      -0,11308;-6,491438e-002;      -0,31420
121,94984;      -0,10916;-6,294316e-002;      -0,31228
124,81458;      -0,10627;-6,081011e-002;      -0,31019
127,67933;      -0,10356;-5,892824e-002;      -0,30802
130,54407;-9,997140e-002;-5,752635e-002;      -0,30572
133,40882;-9,640348e-002;-5,545877e-002;      -0,30330
136,27356;-9,311634e-002;-5,365937e-002;      -0,30040
139,13831;-8,986070e-002;-5,203176e-002;      -0,29733
[...]
313,88775;      -1,84372;      -1,83474;      -1,99879
316,75250;      -1,97771;      -1,89159;      -2,16636
319,61724;      -2,11152;      -1,89249;      -2,34462
322,48199;      -2,26308;      -1,86076;      -2,52625
325,34673;      -2,44774;      -1,68444;      -2,71080
328,21148;      -2,60872;      -0,94066;      -2,90145
331,07622;      -2,69473;      -0,26427;      -3,09851
333,94097;      -2,77433;      -0,12291;      -3,30675
336,80571;      -2,83106;-9,831521e-002;      -3,50114
339,67046;      -2,88105;-9,536621e-002;      -3,67698
342,53520;      -2,80862;-9,524599e-002;      -3,86645
345,39995;      -2,50976;-9,652604e-002;      -4,06579
348,26469;      -1,22039;-9,711382e-002;      -4,25329
351,12944;      -0,44780;-9,821768e-002;      -4,46764
353,99418;      -0,15616;-9,988176e-002;      -4,67056
356,85893;-5,024387e-002;      -0,10086;      -4,78699
359,72367;-1,551245e-002;      -0,10225;      -4,95105
362,58842;-6,196505e-003;      -0,10344;      -5,09709
365,45316;-2,627130e-003;      -0,10401;      -5,18929
368,31791;-1,779215e-003;      -0,10534;      -5,13687
371,18265;-6,940361e-004;      -0,10724;      -4,87879
374,04740;-4,160372e-004;      -0,10897;      -4,04603
376,91214;-1,090536e-003;      -0,11046;      -2,52478
379,77689;-1,400381e-003;      -0,11286;      -1,63848
382,64163;-1,884033e-003;      -0,11453;      -1,11290
385,50638;-3,522536e-003;      -0,11763;      -0,79101
388,37112;-5,263378e-003;      -0,11998;      -0,59910
391,23587;-7,114960e-003;      -0,12262;      -0,48585
394,10061;-9,797336e-003;      -0,12518;      -0,42214
396,96536;-1,290990e-002;      -0,12794;      -0,38752
399,83010;-1,673030e-002;      -0,13086;      -0,36947
402,69485;-2,277532e-002;      -0,13344;      -0,36165
405,55959;-2,902145e-002;      -0,13633;      -0,35876
408,42434;-3,525146e-002;      -0,13805;      -0,35953
411,28908;-4,136648e-002;      -0,13979;      -0,36054
414,15383;-4,633412e-002;      -0,14056;      -0,36427
417,01857;-5,070452e-002;      -0,14185;      -0,36809
419,88332;-5,310986e-002;      -0,14274;      -0,37324
422,74806;-5,467805e-002;      -0,14401;      -0,37828
425,61281;-5,524406e-002;      -0,14360;      -0,38372
428,47755;-5,373148e-002;      -0,14477;      -0,39081
431,34230;-5,302530e-002;      -0,14541;      -0,39672
434,20704;-5,258172e-002;      -0,14571;      -0,40443
437,07179;-5,260174e-002;      -0,14584;      -0,41297
439,93653;-5,384346e-002;      -0,14694;      -0,42219
442,80128;-5,534943e-002;      -0,14785;      -0,43206
445,66602;-5,770618e-002;      -0,14920;      -0,44237
448,53077;-5,991135e-002;      -0,15007;      -0,45324
451,39551;-6,215832e-002;      -0,15091;      -0,46461
454,26026;-6,489093e-002;      -0,15230;      -0,47524
457,12500;-6,846600e-002;      -0,15410;      -0,48443
459,98975;-7,186346e-002;      -0,15470;      -0,49250
462,85449;-7,496268e-002;      -0,15563;      -0,49800
465,71924;-7,815338e-002;      -0,15687;      -0,50125
468,58398;-8,101799e-002;      -0,15792;      -0,50361
471,44873;-8,423210e-002;      -0,15968;      -0,50500
474,31347;-8,735923e-002;      -0,16090;      -0,50638
477,17822;-9,015211e-002;      -0,16235;      -0,50819
480,04296;-9,254431e-002;      -0,16358;      -0,50941
482,90771;-9,465694e-002;      -0,16458;      -0,51111
485,77245;-9,766446e-002;      -0,16723;      -0,51358
488,63720;-9,926921e-002;      -0,16849;      -0,51629
491,50194;      -0,10194;      -0,16960;      -0,51973
494,36669;      -0,10284;      -0,17154;      -0,52311
497,23143;      -0,10461;      -0,17265;      -0,52478
498,18635;      -0,10463;      -0,17320;      -0,52478