Folder: isoconversion_study_of_reaction_kinetics/src/DSC

Note: README.md
# isoconversion_study_of_reaction_kinetics
 isoconversion study of the kinetics of the solid-phase reaction of chlorination of oxides of rare-earth metals

File: Er_DSK.csv
#EXPORTTYPE:                 ;DATA COMPARE                                           ;DATA COMPARE                                           ;DATA COMPARE
#FILE:                       ;08.06.23_ Er_2+4_3kmin_30+500_N2-120.ngb-ds5           ;05.06.23_ Er_2+4_5kmin_30+500_N2-120.ngb-ds5           ;07.06.23_ Er_2+4_10kmin_30+500_N2-120.ngb-ds5
#FORMAT:                     ;NETZSCH5                                               ;NETZSCH5                                               ;NETZSCH5
#FTYPE:                      ;ANSI                                                   ;ANSI                                                   ;ANSI
#IDENTITY:                   ;Er_2+4                                                 ;Er_2+4                                                 ;Er_2+4
#DECIMAL:                    ;COMMA                                                  ;COMMA                                                  ;COMMA
#SEPARATOR:                  ;SEMICOLON                                              ;SEMICOLON                                              ;SEMICOLON
#MTYPE:                      ;DSC                                                    ;DSC                                                    ;DSC
#INSTRUMENT:                 ;NETZSCH STA 449F5                                      ;NETZSCH STA 449F5                                      ;NETZSCH STA 449F5
#PROJECT:                    ;                                                       ;                                                       ;
#DATE/TIME:                  ;08.06.2023 10:38:22 (UTC+3)                            ;05.06.2023 15:35:50 (UTC+3)                            ;07.06.2023 11:37:24 (UTC+3)
#CORR. FILE:                 ;11.05.23_correction for composite-3kmin_30-500Ñ.ngb-bs5;10.05.23_correction for composite-5kmin_30-500Ñ.ngb-bs5;29.04.22_correction for composite-10kmin_30+500_N2-120.ngb-bs5
#TEMPCAL:                    ;3kmin-N2_washer+Al2O3+cover.ngb-ts5                    ;5kmin-N2_washer+Al2O3+cover.ngb-ts5                    ;10kmin-N2_washer+Al2O3+cover.ngb-ts5
#SENSITIVITY:                ;3kmin-N2_washer+Al2O3+cover.ngb-es5                    ;5kmin-N2_washer+Al2O3+cover.ngb-es5                    ;10kmin-N2_washer+Al2O3+cover.ngb-ts5.ngb-es5
#LABORATORY:                 ;                                                       ;                                                       ;
#OPERATOR:                   ;                                                       ;                                                       ;
#REMARK:                     ;                                                       ;                                                       ;
#SAMPLE:                     ;1                                                      ;1                                                      ;1
#SAMPLE MASS /mg:            ;33,686                                                 ;21,38                                                  ;30,5855
#MATERIAL:                   ;                                                       ;                                                       ;
#REFERENCE:                  ;                                                       ;                                                       ;
#REFERENCE MASS /mg:         ;0                                                      ;0                                                      ;0
#TYPE OF CRUCIBLE:           ;DSC/TG pan Al2O3                                       ;DSC/TG pan Al2O3                                       ;DSC/TG pan Al2O3
#SAMPLE CRUCIBLE MASS /mg:   ;0                                                      ;0                                                      ;0
#REFERENCE CRUCIBLE MASS /mg:;0                                                      ;0                                                      ;0
#DSC RANGE /µV:              ;5000                                                   ;5000                                                   ;5000
#TG RANGE /mg:               ;35000                                                  ;35000                                                  ;35000
#TAU-R:                      ;---                                                    ;---                                                    ;---
#CORR. CODE:                 ;020                                                    ;020                                                    ;020
#EXO:                        ;+1                                                     ;+1                                                     ;+1
#RANGE:                      ;30°C/3,0(K/min)/500°C                                  ;30°C/5,0(K/min)/500°C                                  ;30°C/10,0(K/min)/500°C
#SEGMENT:                    ;S1/1                                                   ;S1/1                                                   ;S1/1
#SEG. 1:                     ;30°C/3,0(K/min)/500°C                                  ;30°C/5,0(K/min)/500°C                                  ;30°C/10,0(K/min)/500°C

##Temp./°C;DSC/(mW/mg);DSC/(mW/mg);DSC/(mW/mg)
 30,66100;-3,473940e-003;-7,701759e-003;-7,348379e-003
 33,52574;-2,412196e-002;-3,844449e-002;-3,161676e-002
 36,39049;-3,483144e-002;-5,607722e-002;-5,003742e-002
 39,25523;-4,281618e-002;-6,981371e-002;-6,424397e-002
 42,11998;-4,932240e-002;-8,169599e-002;-7,598814e-002
 44,98472;-5,319123e-002;-9,005462e-002;-8,626501e-002
 47,84947;-5,647956e-002;-9,734720e-002;-9,497232e-002
 50,71421;-5,862348e-002;      -0,10316;      -0,10192
 53,57896;-5,990394e-002;      -0,10751;      -0,10756
 56,44370;-6,084164e-002;      -0,11048;      -0,11234
 59,30845;-6,128477e-002;      -0,11298;      -0,11619
 62,17319;-6,118334e-002;      -0,11522;      -0,11902
 65,03794;-6,100854e-002;      -0,11679;      -0,12108
 67,90268;-6,052112e-002;      -0,11867;      -0,12274
 70,76743;-5,968548e-002;      -0,11867;      -0,12366
 73,63217;-5,888890e-002;      -0,11863;      -0,12411
 76,49692;-5,764331e-002;      -0,11710;      -0,12432
 79,36166;-5,566291e-002;      -0,11480;      -0,12397
 82,22641;-5,350564e-002;      -0,11188;      -0,12320
 85,09115;-5,070814e-002;      -0,10857;      -0,12225
 87,95590;-4,828072e-002;      -0,10507;      -0,12090
 90,82064;-4,594933e-002;      -0,10103;      -0,11872
 93,68539;-4,252602e-002;-9,685464e-002;      -0,11574
 96,55013;-3,917082e-002;-9,364859e-002;      -0,11252
 99,41488;-3,611266e-002;-8,832428e-002;      -0,10764
102,27962;-3,279064e-002;-8,345704e-002;      -0,10243
105,14437;-2,947304e-002;-7,843980e-002;-9,667131e-002
108,00911;-2,623979e-002;-7,311777e-002;-9,029168e-002
110,87386;-2,261601e-002;-6,757224e-002;-8,364628e-002
113,73860;-1,929956e-002;-6,195536e-002;-7,695417e-002
116,60335;-1,606649e-002;-5,681561e-002;-6,995113e-002
119,46809;-1,308070e-002;-5,046288e-002;-6,299839e-002
122,33284;-9,567455e-003;-4,502814e-002;-5,558438e-002
125,19758;-6,397838e-003;-4,016165e-002;-4,788422e-002
128,06233;-2,679186e-003;-3,569396e-002;-4,110911e-002
130,92707; 5,732604e-004;-3,031048e-002;-3,479189e-002
133,79182; 4,017150e-003;-2,546152e-002;-2,830872e-002
136,65656; 7,653305e-003;-2,047974e-002;-2,070483e-002
139,52131; 1,166368e-002;-1,555445e-002;-1,361990e-002
[...]
311,40601;       0,13310; 7,985283e-002;      -1,43920
314,27075;       0,12385;       0,17487;      -1,42984
317,13550;       0,11460;       0,16944;      -1,39583
320,00024;       0,10223;       0,13319;      -1,34565
322,86499; 8,843776e-002; 8,455332e-002;      -1,27606
325,72973; 7,369515e-002; 3,389799e-002;      -1,18318
328,59448; 5,494702e-002;-1,776523e-002;      -1,05978
331,45922; 2,940227e-002;-7,390570e-002;      -0,90913
334,32397; 8,098988e-004;      -0,13156;      -0,72709
337,18871;-2,903500e-002;      -0,19130;      -0,51418
340,05346;-5,849969e-002;      -0,25252;      -0,33653
342,91820;-8,211728e-002;      -0,31440;      -0,28584
345,78295;-9,650674e-002;      -0,36977;      -0,31434
348,64769;-9,743206e-002;      -0,41055;      -0,37865
351,51244;-7,060094e-002;      -0,43123;      -0,45303
354,37718; 4,614181e-002;      -0,42037;      -0,53114
357,24193;       0,28926;      -0,34201;      -0,60982
360,10667;       0,30358; 4,014979e-002;      -0,68288
362,97142;       0,28840;       0,26583;      -0,74331
365,83616;       0,27060;       0,29725;      -0,78727
368,70091;       0,25152;       0,27440;      -0,81196
371,56565;       0,23017;       0,23638;      -0,81230
374,43040;       0,21060;       0,19053;      -0,78394
377,29514;       0,18849;       0,14346;      -0,71897
380,15989;       0,16531; 9,656318e-002;      -0,60807
383,02463;       0,14304; 4,814851e-002;      -0,43448
385,88938;       0,19478; 3,042002e-003;      -0,12941
388,75412;       0,27924; 7,297232e-002; 7,942723e-002
391,61887;       0,29484;       0,22038;       0,11818
394,48361;       0,30125;       0,26812; 9,145070e-002
397,34836;       0,30608;       0,28679; 3,842219e-002
400,21310;       0,31086;       0,29692;-2,323034e-002
403,07785;       0,31540;       0,30343;-8,525988e-002
405,94259;       0,31999;       0,30878;      -0,13615
408,80734;       0,32463;       0,31299;      -0,13166
411,67208;       0,32907;       0,31558; 9,912673e-002
414,53683;       0,33308;       0,31687;       0,25698
417,40157;       0,33631;       0,31820;       0,34054
420,26632;       0,34000;       0,31954;       0,38668
423,13106;       0,34357;       0,31972;       0,41529
425,99581;       0,34790;       0,32015;       0,43383
428,86055;       0,35096;       0,31942;       0,44577
431,72530;       0,35409;       0,31876;       0,45535
434,59004;       0,35821;       0,31699;       0,46188
437,45479;       0,36155;       0,31564;       0,46798
440,31953;       0,36555;       0,31572;       0,47356
443,18428;       0,37045;       0,31431;       0,47801
446,04902;       0,37504;       0,31189;       0,48183
448,91377;       0,37896;       0,31005;       0,48674
451,77851;       0,38255;       0,30770;       0,49047
454,64326;       0,38454;       0,30613;       0,49446
457,50800;       0,38610;       0,30608;       0,49700
460,37275;       0,38776;       0,30594;       0,49888
463,23749;       0,38995;       0,30549;       0,50162
466,10224;       0,39208;       0,30442;       0,50311
468,96698;       0,39442;       0,30153;       0,50374
471,83173;       0,39728;       0,29709;       0,50365
474,69647;       0,39978;       0,29107;       0,50429
477,56122;       0,40223;       0,28573;       0,50440
480,42596;       0,40412;       0,28123;       0,50372
483,29071;       0,40554;       0,27743;       0,50374
486,15545;       0,40588;       0,27358;       0,50302
489,02020;       0,40665;       0,27100;       0,50219
491,88494;       0,40767;       0,26770;       0,50144
494,74969;       0,40848;       0,26295;       0,50033
497,61443;       0,41086;       0,25808;       0,50015

File: Gd_DSK.csv
#EXPORTTYPE:                 ;DATA COMPARE                                                   ;DATA COMPARE                                           ;DATA COMPARE
#FILE:                       ;24.05.23_ Gd_2+4_10kmin_30+1000_N2-120.ngb-ds5                 ;12.05.23_ Gd_2+4_3kmin_30+500_N2-120.ngb-ds5           ;12.05.23_ Gd_2+4_5kmin_30+500_N2-120.ngb-ds5
#FORMAT:                     ;NETZSCH5                                                       ;NETZSCH5                                               ;NETZSCH5
#FTYPE:                      ;ANSI                                                           ;ANSI                                                   ;ANSI
#IDENTITY:                   ;Gd_2+4                                                         ;Gd_2+4                                                 ;Gd_2+4
#DECIMAL:                    ;COMMA                                                          ;COMMA                                                  ;COMMA
#SEPARATOR:                  ;SEMICOLON                                                      ;SEMICOLON                                              ;SEMICOLON
#MTYPE:                      ;DSC                                                            ;DSC                                                    ;DSC
#INSTRUMENT:                 ;NETZSCH STA 449F5                                              ;NETZSCH STA 449F5                                      ;NETZSCH STA 449F5
#PROJECT:                    ;                                                               ;                                                       ;
#DATE/TIME:                  ;24.05.2023 16:54:46 (UTC+3)                                    ;12.05.2023 11:55:38 (UTC+3)                            ;26.05.2023 11:21:43 (UTC+3)
#CORR. FILE:                 ;18.03.22_correction for composite-10kmin_40+1000_N2-120.ngb-bs5;11.05.23_correction for composite-3kmin_30-500Ñ.ngb-bs5;10.05.23_correction for composite-5kmin_30-500Ñ.ngb-bs5
#TEMPCAL:                    ;10kmin-N2_washer+Al2O3+cover.ngb-ts5                           ;3kmin-N2_washer+Al2O3+cover.ngb-ts5                    ;5kmin-N2_washer+Al2O3+cover.ngb-ts5
#SENSITIVITY:                ;10kmin-N2_washer+Al2O3+cover.ngb-ts5.ngb-es5                   ;3kmin-N2_washer+Al2O3+cover.ngb-es5                    ;5kmin-N2_washer+Al2O3+cover.ngb-es5
#LABORATORY:                 ;                                                               ;                                                       ;
#OPERATOR:                   ;                                                               ;                                                       ;
#REMARK:                     ;                                                               ;                                                       ;
#SAMPLE:                     ;1                                                              ;1                                                      ;1
#SAMPLE MASS /mg:            ;20,4395                                                        ;24,6870                                                ;19,9405
#MATERIAL:                   ;                                                               ;                                                       ;
#REFERENCE:                  ;                                                               ;                                                       ;
#REFERENCE MASS /mg:         ;0                                                              ;0                                                      ;0
#TYPE OF CRUCIBLE:           ;DSC/TG pan Al2O3                                               ;DSC/TG pan Al2O3                                       ;DSC/TG pan Al2O3
#SAMPLE CRUCIBLE MASS /mg:   ;0                                                              ;0                                                      ;0
#REFERENCE CRUCIBLE MASS /mg:;0                                                              ;0                                                      ;0
#DSC RANGE /µV:              ;5000                                                           ;5000                                                   ;5000
#TG RANGE /mg:               ;35000                                                          ;35000                                                  ;35000
#TAU-R:                      ;---                                                            ;---                                                    ;---
#CORR. CODE:                 ;020                                                            ;020                                                    ;020
#EXO:                        ;+1                                                             ;+1                                                     ;+1
#RANGE:                      ;25°C/10,0(K/min)/1000°C                                        ;30°C/3,0(K/min)/500°C                                  ;30°C/5,0(K/min)/500°C
#SEGMENT:                    ;S1/2                                                           ;S1/1                                                   ;S1/1
#SEG. 1:                     ;25°C/10,0(K/min)/1000°C                                        ;30°C/3,0(K/min)/500°C                                  ;30°C/5,0(K/min)/500°C

##Temp./°C;DSC/(mW/mg);DSC/(mW/mg);DSC/(mW/mg)
 24,97800; 1,299248e-002;              ;
 29,75258; 2,249322e-002;-6,177435e-003;-2,472806e-003
 34,52715; 3,217929e-002;-2,031716e-002;-2,927444e-002
 39,30173; 4,514057e-002;-2,890581e-002;-4,006191e-002
 44,07630; 6,033384e-002;-3,296897e-002;-4,651989e-002
 48,85088; 7,683481e-002;-3,459298e-002;-4,929747e-002
 53,62545; 9,528622e-002;-3,353166e-002;-4,876534e-002
 58,40003;       0,11413;-3,267040e-002;-4,668623e-002
 63,17460;       0,13355;-3,044872e-002;-4,266237e-002
 67,94918;       0,15402;-2,675021e-002;-3,731341e-002
 72,72375;       0,17518;-2,291013e-002;-3,061251e-002
 77,49833;       0,19675;-1,697863e-002;-2,336631e-002
 82,27290;       0,21886;-1,049053e-002;-1,537815e-002
 87,04748;       0,24116;-4,771690e-003;-6,577061e-003
 91,82205;       0,26414; 1,815462e-003; 2,647499e-003
 96,59663;       0,28733; 9,179004e-003; 1,195549e-002
101,37120;       0,30990; 1,639460e-002; 2,192914e-002
106,14578;       0,33418; 2,340593e-002; 3,251989e-002
110,92035;       0,35870; 3,116337e-002; 4,359284e-002
115,69493;       0,38445; 3,934414e-002; 5,524103e-002
120,46950;       0,40951; 4,760596e-002; 6,638391e-002
125,24408;       0,43520; 5,624736e-002; 7,917969e-002
130,01865;       0,46080; 6,446966e-002; 9,124791e-002
134,79323;       0,48653; 7,193175e-002;       0,10312
139,56780;       0,51187; 7,910231e-002;       0,11447
144,34238;       0,53610; 8,619295e-002;       0,12519
149,11695;       0,55977; 9,454457e-002;       0,13381
153,89153;       0,57923;       0,10219;       0,14106
158,66610;       0,59590; 9,761679e-002;       0,15060
163,44068;       0,61051; 8,437043e-002;       0,15700
168,21525;       0,62808; 7,280677e-002;       0,14734
172,98983;       0,64055; 6,512437e-002;       0,12985
177,76440;       0,62712; 5,106348e-002;       0,11860
182,53898;       0,59351; 2,489475e-002;       0,10811
187,31355;       0,53868;-4,424309e-002; 7,829846e-002
[...]
578,82870;       2,62392;              ;
583,60328;       2,65929;              ;
588,37785;       2,69715;              ;
593,15243;       2,72174;              ;
597,92700;       2,59420;              ;
602,70158;       1,79303;              ;
607,47615;       2,91030;              ;
612,25073;       2,98052;              ;
617,02530;       3,01692;              ;
621,79988;       3,04985;              ;
626,57445;       3,08497;              ;
631,34903;       3,12103;              ;
636,12360;       3,15719;              ;
640,89818;       3,19387;              ;
645,67275;       3,22958;              ;
650,44733;       3,26333;              ;
655,22190;       3,29845;              ;
659,99648;       3,33270;              ;
664,77105;       3,36928;              ;
669,54563;       3,40229;              ;
674,32020;       3,43527;              ;
679,09478;       3,46526;              ;
683,86935;       3,44502;              ;
688,64393;       3,13619;              ;
693,41850;       3,37311;              ;
698,19308;       3,54613;              ;
702,96765;       3,58620;              ;
707,74223;       3,56967;              ;
712,51680;       3,55037;              ;
717,29138;       3,54068;              ;
722,06595;       3,53967;              ;
726,84053;       3,54957;              ;
731,61510;       3,56330;              ;
736,38968;       3,57600;              ;
741,16425;       3,58791;              ;
745,93883;       3,60239;              ;
750,71340;       3,61452;              ;
755,48798;       3,62804;              ;
760,26255;       3,64249;              ;
765,03713;       3,66090;              ;
769,81170;       3,68339;              ;
774,58628;       3,70224;              ;
779,36085;       3,72484;              ;
784,13543;       3,74815;              ;
788,91000;       3,77183;              ;
793,68458;       3,79626;              ;
798,45915;       3,81817;              ;
803,23373;       3,84507;              ;
808,00830;       3,87497;              ;
812,78288;       3,89887;              ;
817,55745;       3,92686;              ;
822,33203;       3,95473;              ;
827,10660;       3,98083;              ;
831,88118;       4,00502;              ;
836,65575;       4,03017;              ;
841,43033;       4,05508;              ;
846,20490;       4,08108;              ;
850,97948;       4,09934;              ;
855,75405;       4,12102;              ;
860,52863;       4,14155;              ;
865,30320;       4,16293;              ;
870,07778;       4,17940;              ;
874,85235;       4,19758;              ;
879,62693;       4,21349;              ;
884,40150;       4,23001;              ;
889,17608;       4,24125;              ;
893,95065;       4,25542;              ;
898,72523;       4,27057;              ;
903,49980;       4,28032;              ;
908,27438;       4,29208;              ;
913,04895;       4,30071;              ;
917,82353;       4,31061;              ;
922,59810;       4,31832;              ;
927,37268;       4,32575;              ;
932,14725;       4,33210;              ;
936,92183;       4,33867;              ;
941,69640;       4,34224;              ;
946,47098;       4,34577;              ;
951,24555;       4,35303;              ;
956,02013;       4,35497;              ;
960,79470;       4,35141;              ;
965,56928;       4,35575;              ;
970,34385;       4,36475;              ;
975,11843;       4,35702;              ;
979,89300;       4,35550;              ;
984,66758;       4,36122;              ;
989,44215;       4,35860;              ;
994,21673;       4,34524;              ;
996,12656;       4,34317;              ;