Folder: isoconversion_study_of_reaction_kinetics/src/old_TGA

Note: README.md
# isoconversion_study_of_reaction_kinetics
 isoconversion study of the kinetics of the solid-phase reaction of chlorination of oxides of rare-earth metals

File: Dy_TGA.csv
temperature,rate_3,rate_5,rate_10,rate_3_diff,rate_5_diff,rate_10_diff,rate_3_diff_reaction_0,rate_3_diff_reaction_1,rate_3_diff_reaction_2,rate_3_diff_reaction_3,rate_3_diff_reaction_4,rate_3_diff_reaction_5,rate_3_diff_cumulative,rate_5_diff_reaction_0,rate_5_diff_reaction_1,rate_5_diff_reaction_2,rate_5_diff_reaction_3,rate_5_diff_reaction_4,rate_5_diff_reaction_5,rate_5_diff_cumulative,rate_10_diff_reaction_0,rate_10_diff_reaction_1,rate_10_diff_reaction_2,rate_10_diff_reaction_3,rate_10_diff_reaction_4,rate_10_diff_reaction_5,rate_10_diff_cumulative
31.63192,99.99894,100.076,99.96317,0.000189379,0.0257306,-0.006491155,1.06E-07,1.48E-13,1.79E-05,2.16E-193,1.15E-36,6.83E-23,1.80E-05,3.33E-08,5.14E-20,3.00E-05,3.21E-201,1.96E-38,1.69E-27,3.00E-05,2.16E-08,8.19E-16,1.12E-06,4.32E-201,1.72E-53,3.65E-34,1.14E-06
44.04581,99.99,100.037,99.98411,-0.00141606,-0.000745972,-0.001179763,2.97E-07,7.74E-13,2.91E-05,1.09E-185,2.57E-35,4.02E-22,2.94E-05,9.80E-08,6.15E-19,4.67E-05,1.62E-193,4.37E-37,1.34E-26,4.68E-05,6.08E-08,4.82E-15,1.97E-06,6.19E-194,1.08E-51,4.37E-33,2.03E-06
56.45971,100.009,100.043,99.98224,-0.002951879,0.000658087,0.000132893,8.37E-07,4.05E-12,4.73E-05,5.48E-178,5.72E-34,2.37E-21,4.82E-05,2.88E-07,7.37E-18,7.28E-05,8.13E-186,9.72E-36,1.06E-25,7.31E-05,1.71E-07,2.84E-14,3.46E-06,8.88E-187,6.77E-50,5.23E-32,3.63E-06
68.8736,100.018,100.064,99.9854,-0.003601608,-0.001508914,0.00169383,2.35E-06,2.12E-11,7.70E-05,2.76E-170,1.27E-32,1.40E-20,7.93E-05,8.49E-07,8.82E-17,0.000113387,4.09E-178,2.17E-34,8.37E-25,0.000114236,4.81E-07,1.67E-13,6.09E-06,1.27E-179,4.24E-48,6.26E-31,6.57E-06
81.2875,100.024,100.0553,99.99831,0.002851005,0.000848965,0.0000962,6.63E-06,1.11E-10,0.00012526,1.39E-162,2.84E-31,8.22E-20,0.000131886,2.50E-06,1.06E-15,0.000176629,2.06E-170,4.83E-33,6.62E-24,0.000179126,1.35E-06,9.86E-13,1.07E-05,1.83E-172,2.66E-46,7.50E-30,1.21E-05
93.70139,100.014,100.05,99.98751,0.000312943,-0.001060109,-0.00121146,1.86E-05,5.81E-10,0.000203791,6.99E-155,6.32E-30,4.84E-19,0.000222434,7.35E-06,1.26E-14,0.000275124,1.04E-162,1.07E-31,5.24E-23,0.000282475,3.81E-06,5.81E-12,1.88E-05,2.62E-165,1.67E-44,8.98E-29,2.26E-05
106.115,100.033,100.028,99.96197,-0.000607059,-0.000776791,0.001984922,5.25E-05,3.04E-09,0.000331531,3.52E-147,1.41E-28,2.85E-18,0.000383985,2.16E-05,1.51E-13,0.000428503,5.22E-155,2.39E-30,4.15E-22,0.000450136,1.07E-05,3.42E-11,3.31E-05,3.76E-158,1.04E-42,1.08E-27,4.38E-05
118.529,100.013,100.034,99.95743,0.000871189,0.000107689,0.00086208,0.000147545,1.59E-08,0.000539276,1.77E-139,3.14E-27,1.68E-17,0.000686837,6.37E-05,1.81E-12,0.000667284,2.63E-147,5.33E-29,3.29E-21,0.000730944,3.01E-05,2.02E-10,5.81432E-05,5.39E-151,6.55E-41,1.29E-26,8.8284E-05
130.943,99.98414,100.018,99.94441,0.003973846,0.002674866,0.002046316,0.000414875,8.33E-08,0.000877028,8.91E-132,6.98E-26,9.90E-17,0.001291987,0.000187275,2.17E-11,0.001038874,1.32E-139,1.19E-27,2.60E-20,0.001226149,8.48E-05,1.19E-09,0.000102215,7.73E-144,4.10E-39,1.54E-25,0.000187005
143.357,99.92583,99.9956,99.92726,0.002572345,0.002289656,0.000268318,0.001165197,4.36E-07,0.001425862,4.49E-124,1.56E-24,5.83E-16,0.002591495,0.000550452,2.60E-10,0.001616782,6.65E-132,2.65E-26,2.06E-19,0.002167234,0.000238434,7.00E-09,0.000179681,1.11E-136,2.57E-37,1.85E-24,0.000418121
155.771,99.87971,99.93322,99.89092,0.006790495,0.006069093,0.003644251,0.003261693,2.28E-06,0.002316952,2.26E-116,3.47E-23,3.44E-15,0.005580927,0.001613851,3.11E-09,0.002514697,3.35E-124,5.89E-25,1.63E-18,0.004128551,0.000669813,4.12E-08,0.000315814,1.59E-129,1.61E-35,2.21E-23,0.000985668
168.185,99.74148,99.86912,99.83576,0.0119985,0.009908356,0.005098567,0.009046144,1.19E-05,0.003761768,1.14E-108,7.72E-22,2.02E-14,0.0128199,0.00469683,3.73E-08,0.003907735,1.69E-116,1.31E-23,1.29E-17,0.008604602,0.001876284,2.43E-07,0.000554962,2.28E-122,1.01E-33,2.65E-22,0.002431489
180.599,99.46696,99.69729,99.74796,0.03755887,0.0211735,0.005726817,0.0244602,6.25E-05,0.00609926,5.72E-101,1.72E-20,1.19E-13,0.0306219,0.0133839,4.46E-07,0.006063913,8.48E-109,2.92E-22,1.02E-16,0.0194482,0.005214216,1.43E-06,0.000974821,3.27E-115,6.33E-32,3.17E-21,0.006190468
193.013,98.79092,99.28342,99.61799,0.0719508,0.0481059,0.0130367,0.0619217,0.000327029,0.009867546,2.88E-93,3.83E-19,7.02E-13,0.0721163,0.0360131,5.35E-06,0.00938935,4.27E-101,6.51E-21,8.09E-16,0.04540781,0.0141791,8.43E-06,0.001711142,4.69E-108,3.97E-30,3.80E-20,0.01589867
205.426,97.44305,98.43417,99.28943,0.150102,0.0964745,0.0429004,0.134867,0.001706962,0.0159078,1.45E-85,8.53E-18,4.14E-12,0.152481,0.0845474,6.40093E-05,0.0144899,2.15E-93,1.45E-19,6.41E-15,0.0991013,0.0364466,4.96E-05,0.003000002,6.73E-101,2.49E-28,4.55E-19,0.0394962
217.84,94.96756,96.76612,98.49105,0.251839,0.170023,0.0942612,0.223908,0.00880702,0.0255015,7.29E-78,1.90E-16,2.44E-11,0.258216,0.15513,0.0007651,0.0222471,1.08E-85,3.23E-18,5.07E-14,0.178142,0.0823572,0.000292165,0.005248531,9.65E-94,1.56E-26,5.44E-18,0.0878979
230.254,91.23104,94.03721,96.90467,0.327544,0.257907,0.158651,0.255655,0.0428972,0.0405198,3.67E-70,4.23E-15,1.44E-10,0.339072,0.211498,0.008968602,0.03389436,5.44E-78,7.20E-17,4.02E-13,0.254361,0.147941,0.00171392,0.009148621,1.38E-86,9.77E-25,6.52E-17,0.158803
242.668,86.5711,90.35963,94.46575,0.415791,0.376691,0.230678,0.186376,0.164698,0.06350448,1.85E-62,9.43E-14,8.46E-10,0.414579,0.22143,0.0857527,0.0510496,2.74E-70,1.60E-15,3.18E-12,0.358233,0.200151,0.009853634,0.0158458,1.99E-79,6.13E-23,7.80E-16,0.225851
255.082,80.62377,84.4609,91.29736,0.553884,0.547499,0.283969,0.08675556,0.359979,0.0974916,9.30E-55,2.10E-12,4.98E-09,0.544227,0.174898,0.300856,0.0756156,1.38E-62,3.57E-14,2.52E-11,0.55137,0.208718,0.0508406,0.0271504,2.85E-72,3.84E-21,9.35E-15,0.286709
267.496,73.20986,77.29933,87.12673,0.583663,0.580418,0.383224,0.0301537,0.414035,0.145275,4.68E-47,4.68E-11,2.94E-08,0.589464,0.095073,0.379378,0.109411,6.94E-55,7.96E-13,1.99E-10,0.583862,0.169362,0.172973,0.04569017,4.08E-65,2.41E-19,1.12E-13,0.388025
279.91,69.56409,70.84552,81.72671,0.225176,0.346731,0.475268,0.009255512,0.000127718,0.207899,2.36E-39,1.04E-09,1.73E-07,0.217283,0.0365877,0.151083,0.153425,3.49E-47,1.77E-11,1.58E-09,0.3410966,0.103757,0.291367,0.07470497,5.86E-58,1.51E-17,1.34E-12,0.46983
292.324,66.45933,67.74423,75.74424,0.281132,0.251626,0.469362,0.002724534,4.16E-09,0.282828,1.19E-31,2.32E-08,1.02E-06,0.285554,0.0116876,0.000497998,0.206834,1.76E-39,3.95E-10,1.25E-08,0.21902,0.0491259,0.303472,0.116944,8.40E-51,9.45E-16,1.60E-11,0.469543
304.738,62.51079,64.46894,70.88496,0.351905,0.275602,0.271534,0.000791733,1.34E-13,0.363299,5.97E-24,5.17E-07,6.00E-06,0.364097,0.003483701,1.01E-06,0.266348,8.85E-32,8.80E-09,9.89E-08,0.269833,0.0197673,0.0820441,0.172381,1.21E-43,5.92E-14,1.92E-10,0.274193
317.1515,57.6297,60.71751,67.88921,0.434112,0.329167,0.254933,0.00022918,0.00E+00,0.440287,3.00E-16,1.15E-05,3.53E-05,0.440563,0.001015992,2.03E-09,0.326685,4.45E-24,1.96E-07,7.83E-07,0.327702,0.007370231,0.003104403,0.236018,1.73E-36,3.71E-12,2.30E-09,0.246492
329.5654,51.70864,56.32021,64.43078,0.498367,0.383067,0.303353,6.63E-05,0,0.493816,1.49E-08,0.000255648,0.000207969,0.494346,0.00029439,4.08E-12,0.382264,2.24E-16,4.36E-06,6.20E-06,0.382569,0.002665866,9.03E-05,0.298746,2.48E-29,2.33E-10,2.76E-08,0.301502
341.979,49.26905,51.24229,60.35658,0.0399286,0.409488,0.353255,1.92E-05,0,0.000735487,0.0374405,0.005275991,0.00121784,0.044689,8.51E-05,8.23E-15,0.409051,1.13E-08,9.70672E-05,4.90E-05,0.409282,0.000953472,2.60E-06,0.351948,3.56E-22,1.46E-08,3.30E-07,0.352905
354.393,48.58546,49.06566,55.60835,0.06837579,0.0384942,0.400453,5.53E-06,0,2.61E-08,0.0172158,0.0442911,0.006931356,0.06844382,2.46E-05,0.00E+00,0.002402344,0.0345999,0.002094058,0.000387231,0.0395082,0.000339635,7.50E-08,0.391456,5.10E-15,9.14E-07,3.95E-06,0.391801
366.807,47.62491,48.49624,50.85116,0.0888406,0.053842,0.327334,1.60E-06,0,9.01E-13,0.002213988,0.0552138,0.03404331,0.0914727,7.11E-06,0,6.50E-07,0.0229617,0.0274241,0.003005979,0.0533996,1.21E-04,2.16E-09,0.347943,7.30E-08,5.72E-05,4.73E-05,0.348168
379.221,46.30182,47.65708,49.22116,0.119569,0.0787849,0.0585396,4.62E-07,0,0.00E+00,0.000193622,0.0182037,0.101306,0.119704,2.06E-06,0,1.72E-10,0.002437668,0.0549308,0.0206217,0.0779922,4.29E-05,6.23E-11,0.004288281,0.05035,0.003407131,0.000563819,0.0586522
391.635,44.89139,46.53089,48.35006,0.0199267,0.102884,0.0795873,1.34E-07,0,0,1.62E-05,0.001998709,0.0191424,0.0211575,5.94E-07,0,4.49E-14,1.17E-04,0.0271598,0.0793835,0.10666,1.53E-05,1.80E-12,8.93E-06,0.0250814,0.05131368,0.006420385,0.0828397
404.049,44.85279,45.0592,47.19613,0.004324398,0.118146,0.102883,3.86E-08,0,0,1.36E-06,0.000171407,3.01E-07,0.000173103,1.72E-07,0,0,5.25E-06,0.003691508,0.114183,0.11788,5.43E-06,5.17E-14,1.83E-08,0.00142813,0.0586486,0.0484389,0.108521
416.463,44.81452,44.6826,45.68851,0.002310488,0.003616453,0.127519,1.12E-08,0,0,1.13E-07,1.43E-05,3.84E-12,1.45E-05,4.96E-08,0,0,2.36E-07,0.000325248,6.29E-06,0.000331825,1.93E-06,1.51E-15,3.71E-11,4.66E-05,0.0165354,0.105478,0.122062
428.877,44.76521,44.64661,45.01904,0.003180611,0.004589568,0.000669129,3.22E-09,0,0,9.46E-09,1.20E-06,3.77E-17,1.21E-06,1.43E-08,0,0,1.06E-08,2.73E-05,2.58E-11,2.73E-05,6.85E-07,7.54952E-17,7.50E-14,1.48E-06,0.000971365,0.000524039,0.001497572
441.29,44.71281,44.60422,44.99607,0.003748497,0.001411144,0.001785171,9.32E-10,0,0,7.90E-10,1.00E-07,0,1.02E-07,4.14E-09,0,0,4.75E-10,2.28E-06,1.20E-16,2.28E-06,2.44E-07,0,1.02E-16,4.71E-08,4.42E-05,3.00E-08,4.45E-05
453.704,44.68384,44.55223,44.98694,0.002031798,0.001772576,0.002757065,2.69E-10,0,0,6.60E-11,8.36E-09,0,8.69E-09,1.20E-09,0,0,2.13E-11,1.90E-07,0,1.92E-07,8.66E-08,0,0,1.50E-09,1.99E-06,1.69E-12,2.07E-06
466.118,44.65348,44.51503,44.9693,0.000938638,0.002746217,0.001228844,7.78E-11,0,0,5.51E-12,6.98E-10,0,7.81E-10,3.46E-10,0,0,9.57E-13,1.59E-08,0,1.62E-08,3.08E-08,0,0,4.77E-11,8.92E-08,1.07E-16,1.20E-07
478.532,44.61351,44.49043,44.94717,0.003992906,0.003713914,0.002128131,2.25E-11,0,0,4.60E-13,5.83E-11,0,8.12E-11,1.00E-10,0,0,4.30E-14,1.33E-09,0,1.43E-09,1.09E-08,0,0,1.52E-12,4.00E-09,0,1.49E-08
490.946,44.56321,44.44307,44.93001,0.003694462,0.001672368,0.000806013,6.50E-12,0,0,3.84E-14,4.87E-12,0,1.14E-11,2.89E-11,0,0,1.93E-15,1.11E-10,0,1.40E-10,3.89E-09,0,0,4.82E-14,1.80E-10,0,4.07E-09
500.495,44.53659,44.39879,44.91998,0.000426645,0.00477235,-0.000271983,2.50E-12,0,0,5.69E-15,7.21E-13,0,3.23E-12,2.50E-12,0,0,5.69E-15,7.21E-13,0,3.23E-12,2.50E-12,0,0,5.69E-15,7.21E-13,0,3.23E-12

File: Er_TGA.csv
temperature,rate_3,rate_5,rate_10,rate_3_diff,rate_5_diff,rate_10_diff,rate_3_diff_reaction_0,rate_3_diff_reaction_1,rate_3_diff_reaction_2,rate_3_diff_reaction_3,rate_3_diff_reaction_4,rate_3_diff_reaction_5,rate_3_diff_cumulative,rate_5_diff_reaction_0,rate_5_diff_reaction_1,rate_5_diff_reaction_2,rate_5_diff_reaction_3,rate_5_diff_reaction_4,rate_5_diff_reaction_5,rate_5_diff_cumulative,rate_10_diff_reaction_0,rate_10_diff_reaction_1,rate_10_diff_reaction_2,rate_10_diff_reaction_3,rate_10_diff_reaction_4,rate_10_diff_reaction_5,rate_10_diff_cumulative
30.661,100,100,100,0,0,0,9.07E-07,9.17E-31,4.31E-06,6.26E-180,2.59E-50,4.28E-39,5.22E-06,3.85E-06,2.27E-11,1.99E-08,2.39E-146,5.92E-51,7.43E-32,3.87E-06,1.65E-07,5.15E-15,1.49E-10,1.33E-174,2.17E-54,1.06E-41,1.65E-07
43.07489,99.70112,100.393,99.65211,-0.00318544,0.002302933,-0.000639545,1.88E-06,3.18E-29,7.08E-06,3.43E-173,1.62E-48,9.54E-38,8.96E-06,7.39E-06,7.87E-11,4.13E-08,5.89E-141,3.71E-49,8.90E-31,7.43E-06,3.58E-07,2.43E-14,3.62E-10,1.30E-168,1.36E-52,2.36E-40,3.58E-07
55.48879,99.73312,100.413,99.65931,-0.001909815,-0.001303318,1.43559E-05,3.91E-06,1.10E-27,1.16E-05,1.88E-166,1.02E-46,2.13E-36,1.55E-05,1.42E-05,2.72E-10,8.57E-08,1.45E-135,2.33E-47,1.07E-29,1.43E-05,7.78E-07,1.15E-13,8.79E-10,1.28E-162,8.51E-51,5.25E-39,7.79E-07
67.90268,99.76222,100.407,99.67603,-0.001167759,-0.001618712,0.002163767,8.11E-06,3.83E-26,1.91E-05,1.03E-159,6.38E-45,4.73E-35,2.72E-05,2.73E-05,9.42E-10,1.77804E-07,3.57E-130,1.46E-45,1.28E-28,2.74793E-05,1.69E-06,5.42E-13,2.13E-09,1.25E-156,5.33E-49,1.17E-37,1.69E-06
80.31658,99.76964,100.389,99.68023,-0.000595148,0.001215425,5.41215E-05,1.68E-05,1.33E-24,3.14069E-05,5.66E-153,4.00E-43,1.05E-33,4.82298E-05,5.25E-05,3.26E-09,3.69042E-07,8.79E-125,9.14E-44,1.53E-27,5.28398E-05,3.67E-06,2.56E-12,5.18E-09,1.22E-150,3.34E-47,2.61E-36,3.68E-06
92.73047,99.76281,100.3695,99.66455,0.000228478,-0.00176305,0.00104912,3.49E-05,4.62E-23,5.16017E-05,3.11E-146,2.51E-41,2.35E-32,8.65179E-05,1.01E-04,1.13E-08,7.65967E-07,2.16E-119,5.73E-42,1.83E-26,0.000101605,7.98E-06,1.21E-11,1.26E-08,1.19E-144,2.10E-45,5.81E-35,7.99E-06
105.144,99.76518,100.389,99.64816,-0.000222776,0.000423269,0.003055153,7.25E-05,1.60E-21,8.47805E-05,1.70E-139,1.57E-39,5.23E-31,0.000157248,1.94E-04,3.90E-08,1.58981E-06,5.33E-114,3.59E-40,2.19E-25,0.000195364,1.73E-05,5.69E-11,3.05E-08,1.17E-138,1.31E-43,1.29E-33,1.74E-05
117.558,99.76578,100.354,99.63159,-0.000138406,0.004778732,0.000932237,0.000150394,5.56E-20,0.000139289,9.34E-133,9.85E-38,1.17E-29,0.000289683,3.72E-04,1.35E-07,3.29972E-06,1.31E-108,2.25E-38,2.62E-24,0.00037559,3.76E-05,2.69E-10,7.40E-08,1.14E-132,8.23E-42,2.88E-32,3.77E-05
129.972,99.7539,100.312,99.62696,-0.000217205,0.003842911,0.002610048,0.000312086,1.93E-18,0.000228831,5.12E-126,6.17E-36,2.60E-28,0.000540917,0.000714538,4.67E-07,6.84872E-06,3.23E-103,1.41E-36,3.14E-23,0.000721854,8.18E-05,1.27E-09,1.7961E-07,1.12E-126,5.16E-40,6.42E-31,8.19486E-05
142.386,99.73312,100.245,99.60785,0.000620341,0.006508556,0.00147013,0.00064747,6.69E-17,0.000375906,2.81E-119,3.87E-34,5.78E-27,0.001023376,0.001370598,1.62E-06,1.42147E-05,7.95E-98,8.84E-35,3.76E-22,0.001386431,0.000177573,5.99E-09,4.35936E-07,1.09E-120,3.23E-38,1.43E-29,0.000178015
154.8,99.71561,100.197,99.57333,0.000516352,0.002422215,0.002503574,0.001342646,2.32E-15,0.000617432,1.54E-112,2.42E-32,1.29E-25,0.001960078,0.002624222,5.60E-06,2.95027E-05,1.96E-92,5.54E-33,4.50E-21,0.002659323,0.000385465,2.82E-08,1.05807E-06,1.07E-114,2.03E-36,3.18E-28,0.000386551
167.214,99.66158,100.137,99.55247,0.005523217,0.003598095,0.004124482,0.00278152,8.06E-14,0.001013929,8.45E-106,1.52E-30,2.87E-24,0.003795449,0.005006955,1.94E-05,6.12314E-05,4.82E-87,3.47E-31,5.39E-20,0.005087556,0.00083596,1.33E-07,2.56806E-06,1.04E-108,1.27E-34,7.09E-27,0.000838662
179.628,99.58647,100.0323,99.49552,0.01017869,0.0113284,0.002308992,0.005750858,2.80E-12,0.001664472,4.63E-99,9.52E-29,6.39E-23,0.00741533,0.009490107,6.70E-05,0.000127076,1.19E-81,2.18E-29,6.46E-19,0.009684208,0.001809283,6.29E-07,6.23295E-06,1.02E-102,7.96E-33,1.58E-25,0.001816145
192.042,99.44807,99.8674,99.44059,0.0147927,0.0197637,0.005954038,0.0118411,9.70966E-11,0.002730864,2.54E-92,5.97E-27,1.42E-21,0.014572,0.0177658,2.32E-04,0.000263695,2.92E-76,1.36E-27,7.73E-18,0.0182613,0.003898795,2.97E-06,1.51279E-05,9.98E-97,4.99E-31,3.52E-24,0.003916893
204.456,99.16909,99.52576,99.35355,0.0302538,0.03221696,0.0101014,0.0241769,3.36955E-09,0.004476332,1.39E-85,3.74E-25,3.17E-20,0.0286533,0.0325116,8.02E-04,0.000547063,7.19E-71,8.55E-26,9.26E-17,0.0338604,0.008323532,1.40E-05,3.67157E-05,9.76E-91,3.13E-29,7.84E-23,0.008374264
216.869,98.65147,98.95977,99.18814,0.0560708,0.0586464,0.017182,0.0485394,1.16934E-07,0.007326348,7.64E-79,2.34E-23,7.07E-19,0.0558658,0.0571644,0.002765843,0.001134383,1.77E-65,5.36E-24,1.11E-15,0.0610646,0.0174271,6.61448E-05,8.91042E-05,9.55E-85,1.96E-27,1.75E-21,0.0175823
229.283,97.67937,97.97112,98.88424,0.107902,0.103094,0.0358748,0.0943054,4.05794E-06,0.0119614,4.19E-72,1.47E-21,1.57E-17,0.106271,0.09404568,0.009472565,0.002349853,4.36E-60,3.36E-22,1.33E-14,0.105868,0.0350898,0.000312049,0.000216213,9.34E-79,1.23E-25,3.89E-20,0.035618
241.697,95.84191,96.25956,98.27406,0.194451,0.178335,0.0639693,0.171993,0.000140802,0.0194511,2.30E-65,9.21E-20,3.51E-16,0.191585,0.139508,0.0316527,0.004857449,1.07E-54,2.10E-20,1.59E-13,0.176018,0.0657286,0.001469823,0.000524459,9.13E-73,7.70E-24,8.66E-19,0.0677229
254.111,92.79493,93.39098,97.14847,0.306903,0.300483,0.118104,0.269743,0.004861587,0.0314279,1.26E-58,5.77E-18,7.81E-15,0.306033,0.17679,0.09789244,0.009997665,2.64E-49,1.32E-18,1.90E-12,0.28468,0.109545,0.006872287,0.001271061,8.93E-67,4.82E-22,1.93E-17,0.117688
266.525,88.34081,88.8883,95.29675,0.401952,0.445838,0.190459,0.229258,0.143555,0.0502649,6.91E-52,3.62E-16,1.74E-13,0.423078,0.173848,0.247674,0.020397,6.51E-44,8.27E-17,2.28E-11,0.441919,0.155797,0.0310656,0.003074086,8.73E-61,3.02E-20,4.30E-16,0.189937
278.9389,80.19905,82.53713,92.3953,0.932137,0.589329,0.318656,0.0489173,0.806747,0.07913149,3.79E-45,2.27E-14,3.87E-12,0.934796,0.115889,0.443988,0.0408882,1.60E-38,5.18E-15,2.73E-10,0.600765,0.182304,0.122255,0.007397555,8.54E-55,1.90E-18,9.58E-15,0.311957
291.353,67.73102,74.40378,87.20555,0.996026,0.7164,0.511104,0.005192919,8.90E-01,0.121652,2.08E-38,1.42E-12,8.63E-11,1.01644,0.0512778,0.575101,0.0792449,3.94E-33,3.25E-13,3.27E-09,0.705623,0.160838,0.323241,0.0175906,8.35E-49,1.19E-16,2.13E-13,0.501669
303.767,59.58248,65.64341,80.1347,0.224171,0.593222,0.621693,0.000475493,3.90E-02,0.18077,1.14E-31,8.91E-11,1.92E-09,0.2202794,0.0175837,3.72E-01,0.144599,9.71E-28,2.03E-11,3.91E-08,0.53429,0.0908223,0.493039,0.0406917,8.17E-43,7.44E-15,4.75E-12,0.624553
316.181,56.30173,61.80321,72.21186,0.274911,0.244515,0.629607,4.15013E-05,8.21E-05,0.256692,6.25E-25,5.58E-09,4.28E-08,0.256816,0.005413234,1.88E-03,0.239936,2.39E-22,1.28E-09,4.69E-07,0.247228,0.0326498,0.516131,0.0886674,7.99E-37,4.67E-13,1.06E-10,0.637448
328.594,52.73813,58.18191,65.08531,0.318138,0.34716,0.484545,3.54E-06,1.65474E-07,0.344837,3.43E-18,3.49843E-07,9.53927E-07,0.344842,0.001602412,3.83E-06,0.351638,5.88E-17,7.99E-08,5.61E-06,0.35325,0.009234429,2.85E-01,0.172425,7.81E-31,2.92E-11,2.36E-09,0.466768
341.008,48.17485,53.33835,60.47691,0.422162,0.447179,0.30011,2.99E-07,3.33495E-10,0.43516,1.87451E-11,2.18864E-05,2.12472E-05,0.435203,4.68E-04,7.73E-09,0.453305,1.44E-11,5.01E-06,6.72E-05,0.453845,0.002405622,4.39E-02,0.282283,7.64E-25,1.83E-09,5.25E-08,0.328548
353.422,42.88339,47.31972,56.24422,0.232818,0.509014,0.386563,2.51E-08,6.72039E-13,2.31E-01,9.80961E-05,0.001332625,0.000472431,0.232902,1.36E-04,1.56E-11,0.498193,3.44172E-06,0.000312647,0.000802438,0.499447,0.000611811,3.94E-03,0.382483,7.47E-19,1.15E-07,1.17E-06,0.387037
365.836,41.57383,44.38841,51.04666,0.115809,0.121591,0.444388,2.10E-09,1.45328E-15,6.84E-04,0.0619917,0.04329921,0.0101167,0.116091,3.93E-05,3.14124E-14,4.23E-03,0.0841549,0.0164006,0.009305281,0.114132,1.55E-04,3.31E-04,0.440827,7.30E-13,7.20E-06,2.61E-05,0.441346
378.25,39.88277,42.64512,45.79547,0.156283,0.165832,0.36394,1.76E-10,0,1.08E-06,0.008537188,0.03509793,0.117546,0.161182,1.14E-05,0,1.90E-06,0.022555,0.0606389,0.08081126,0.164018,3.89E-05,2.77E-05,0.34691,7.0383E-07,0.000449292,0.000578977,0.348006
390.664,38.7054,40.83228,43.04504,0.004559798,0.020414,0.151377,1.47E-11,0,1.66136E-09,6.00E-04,0.003862456,0.00199455,0.006456559,3.29E-06,0,8.27E-10,2.21E-03,0.005919108,0.0150921,0.02322443,9.81E-06,2.31E-06,5.13E-02,0.0710181,0.0221788,0.0122129,0.156682
403.078,38.61401,40.7063,41.00362,0.007371355,0.0114545,0.174325,1.23E-12,0,2.50062E-12,3.93E-05,0.0003305,5.35E-07,0.000370286,9.50E-07,0,3.57006E-13,1.87E-04,0.000278288,6.11677E-07,0.000467108,2.47E-06,1.93E-07,2.59E-03,0.0128892,0.0374768,0.120214,0.17317
415.492,38.51838,40.54391,39.88293,0.007262166,0.0131669,0.005009801,1.02E-13,0,3.64982E-15,2.56E-06,2.77E-05,1.37E-10,3.02E-05,2.75E-07,0,1.37037E-16,1.57E-05,1.25191E-05,2.00E-11,2.84511E-05,6.22E-07,1.61E-08,1.17E-04,6.52E-04,0.000949217,0.001431421,0.003150168
427.906,38.41303,40.39009,39.77048,0.007897591,0.0144787,0.005817737,8.55E-15,0,0,1.67E-07,2.31E-06,3.47E-14,2.48E-06,7.94E-08,0,0,1.31E-06,5.62E-07,6.59E-16,1.95E-06,1.57E-07,1.35E-09,5.28E-06,2.94E-05,1.52802E-05,3.78862E-07,5.05145E-05
440.32,38.27859,40.2044,39.67076,0.009482423,0.0147024,0.007733505,6.84E-16,0,0,1.08E-08,1.93E-07,0,2.04E-07,2.29E-08,0,0,1.09E-07,2.52E-08,0.00E+00,1.57E-07,3.94E-08,1.12436E-10,2.37E-07,1.32E-06,2.44E-07,9.66E-11,1.84E-06
452.733,38.18025,40.02008,39.58673,0.008194255,0.0180868,0.008615265,0.00E+00,0,0,7.07E-10,1.61E-08,0,1.68E-08,6.63E-09,0,0,9.12E-09,1.13E-09,0,1.69E-08,9.92E-09,9.38965E-12,1.06578E-08,5.93E-08,3.89E-09,2.46E-14,8.38E-08
465.147,38.07308,39.82269,39.47884,0.00713864,0.0148589,0.00828156,0.00E+00,0,0,4.60E-11,1.35E-09,0,1.39E-09,1.92E-09,0,0,7.62E-10,5.09E-11,0,2.73E-09,2.50E-09,7.84177E-13,4.78537E-10,2.66E-09,6.21E-11,0.00E+00,5.70E-09
477.561,37.97245,39.65903,39.37613,0.008299206,0.0108377,0.009431802,0.00E+00,0,0,3.00E-12,1.12E-10,0,1.15E-10,5.53E-10,0,0,6.36E-11,2.28E-12,0,6.19E-10,6.29E-10,6.54232E-14,2.14843E-11,1.20E-10,9.90E-13,0,7.71E-10
489.975,37.88399,39.49144,39.25676,0.00428611,0.01216527,0.0114165,0.00E+00,0,0,1.95E-13,9.38E-12,0,9.58E-12,1.60E-10,0,0,5.31E-12,1.03E-13,0,1.65E-10,1.58E-10,5.40901E-15,9.6447E-13,5.37E-12,1.58E-14,0,1.65E-10
497.614,37.82146,39.41721,39.18523,-0.0760056,-0.0792124,-0.0787462,0.00E+00,0,0,3.64E-14,2.04E-12,0,2.07E-12,7.45E-11,0,0,1.15E-12,1.52E-14,0,7.57E-11,6.77E-11,1.15907E-15,1.42798E-13,7.95E-13,1.23E-15,0,6.87E-11