Folder: isoconversion_study_of_reaction_kinetics/src/TGA (part 3)

File: NH4Cl_TGA.csv
temperature,rate_3,rate_5,rate_10,rate_3_diff,rate_5_diff,rate_10_diff,rate_3_diff_reaction_0,rate_3_diff_reaction_1,rate_3_diff_reaction_2,rate_3_diff_reaction_3,rate_3_diff_cumulative,rate_5_diff_reaction_0,rate_5_diff_reaction_1,rate_5_diff_reaction_2,rate_5_diff_reaction_3,rate_5_diff_cumulative,rate_10_diff_reaction_0,rate_10_diff_reaction_1,rate_10_diff_reaction_2,rate_10_diff_reaction_3,rate_10_diff_cumulative
30.278,100,100,100,0.561519,-0.502759,0.394697,2.96E-06,6.45E-12,3.74E-95,2.09E-30,2.96E-06,5.24E-07,9.72E-11,3.39E-118,2.40E-35,5.24E-07,7.86E-07,4.40E-10,2.72E-154,1.17E-25,7.87E-07
40.78206,99.4777,100.495,99.68779,0.001691265,0.006272857,-0.001544632,5.30E-06,1.84E-11,6.78E-92,1.79E-29,5.30E-06,9.72E-07,2.33E-10,2.15E-114,2.47E-34,9.72E-07,1.37E-06,9.31E-10,9.92E-150,5.26E-25,1.37E-06
51.28613,99.49132,100.513,99.70094,0.003382531,-0.000209423,0.004345922,9.50E-06,5.27E-11,1.23E-88,1.52E-28,9.50E-06,1.80E-06,5.60E-10,1.36E-110,2.55E-33,1.80E-06,2.38E-06,1.97E-09,3.62E-145,2.36E-24,2.38E-06
61.79019,99.51169,100.512,99.7027,-0.000958193,0.000607378,-0.004325,1.70E-05,1.51E-10,2.23E-85,1.30E-27,1.70E-05,3.34E-06,1.34E-09,8.60E-107,2.64E-32,3.35E-06,4.13E-06,4.18E-09,1.32E-140,1.06E-23,4.13E-06
72.29426,99.51441,100.5029,99.69231,-0.005723033,0.003408667,0.000664968,3.05E-05,4.31E-10,4.04E-82,1.11E-26,3.05E-05,6.20E-06,3.22E-09,5.45E-103,2.72E-31,6.20813E-06,7.18E-06,8.84E-09,4.81E-136,4.74E-23,7.18E-06
82.79832,99.51935,100.503,99.70477,0.0111895,-0.004146963,-0.003481974,5.47E-05,1.23E-09,7.33E-79,9.46E-26,5.47179E-05,1.15E-05,7.74E-09,3.45E-99,2.81E-30,1.15177E-05,1.25E-05,1.87E-08,1.75E-131,2.13E-22,1.25E-05
93.30239,99.53496,100.506,99.72825,-0.001434675,-0.002157287,-0.000853475,9.81E-05,3.52E-09,1.33E-75,8.07E-25,9.80704E-05,2.14E-05,1.86E-08,2.18E-95,2.90E-29,2.13692E-05,2.17E-05,3.96E-08,6.40E-127,9.54E-22,2.17E-05
103.806,99.53633,100.52,99.72072,3.66648E-05,-0.00296884,-0.001979239,1.76E-04,1.01E-08,2.41E-72,6.88E-24,0.000175761,3.96E-05,4.46E-08,1.38E-91,2.99E-28,3.96485E-05,3.77E-05,8.40E-08,2.33E-122,4.28E-21,3.78E-05
114.311,99.53405,100.5086,99.72239,-0.00143469,0.003199235,0.001167644,0.00031494,2.88E-08,4.37E-69,5.87E-23,0.000314968,7.35E-05,1.07E-07,8.76E-88,3.09E-27,7.35674E-05,6.55E-05,1.78E-07,8.50E-118,1.92E-20,6.57E-05
124.815,99.50984,100.495,99.73244,0.006456103,0.001827388,-1.57104E-05,0.000564248,8.23E-08,7.93E-66,5.01E-22,0.00056433,0.000136252,2.57E-07,5.55E-84,3.19E-26,0.000136508,1.14E-04,3.76E-07,3.10E-113,8.60E-20,0.000114206
135.319,99.50253,100.474,99.72786,0.004324992,0.002529008,0.002879849,0.001010555,2.35E-07,1.44E-62,4.27E-21,0.001010791,0.000252688,6.16E-07,3.51E-80,3.29E-25,0.000253303,0.000197821,7.97E-07,1.13E-108,3.86E-19,0.000198619
145.823,99.49946,100.462,99.73746,-0.003586719,0,0.003550043,0.001808739,6.73E-07,2.61E-59,3.65E-20,0.001809412,0.000468529,1.48E-06,2.22E-76,3.40E-24,0.000470007,0.000343745,1.69E-06,4.12E-104,1.73E-18,0.000345433
156.327,99.47329,100.443,99.73362,0.007414276,0.00137185,0.001094339,0.00323372,1.92E-06,4.73E-56,3.11E-19,0.003235643,0.000868414,3.55E-06,1.41E-72,3.51E-23,0.000871959,0.000597172,3.58E-06,1.50E-99,7.76E-18,0.000600747
166.831,99.41025,100.401,99.72825,0.008906568,0.006597457,0,0.005769739,5.50E-06,8.57E-53,2.65E-18,0.005775236,0.001608472,8.51E-06,8.92E-69,3.62E-22,0.00161698,0.001037027,7.57E-06,5.48E-95,3.48E-17,0.001044597
177.335,99.31935,100.34,99.7086,0.0178707,0.005267483,0.005455984,0.010258,1.57E-05,1.55E-49,2.26E-17,0.0102737,0.002975369,2.04E-05,5.65E-65,3.73E-21,0.002995786,0.001799621,1.60E-05,2.00E-90,1.56E-16,0.001815653
187.839,99.14296,100.256,99.68385,0.0276726,0.009341144,0.00308404,0.0181234,4.49232E-05,2.82E-46,1.93E-16,0.01816831,0.00549081,4.90E-05,3.58E-61,3.85E-20,0.005539803,0.003119269,3.39E-05,7.29E-86,6.99E-16,0.003153219
198.343,98.85343,100.082,99.62072,0.0340135,0.0160695,0.007450941,0.0316722,0.000128422,5.11E-43,1.65E-15,0.0318007,0.01008881,1.18E-04,2.26E-57,3.98E-19,0.0102064,0.005395456,7.19E-05,2.66E-81,3.14E-15,0.005467347
208.8471,98.39049,99.82877,99.51034,0.0519837,0.0313483,0.01382322,0.0543343,0.000367091,9.26741E-40,1.41E-14,0.0547014,0.01839101,2.82E-04,1.43E-53,4.11E-18,0.0186731,0.00929953,1.52E-04,9.69E-77,1.41E-14,0.009451761
219.351,97.63777,99.42538,99.35267,0.0969406,0.048397,0.01941536,0.0904353,0.001049091,1.68046E-36,1.20E-13,0.0914844,0.0330546,6.77E-04,9.07736E-50,4.24E-17,0.03373142,0.0159317,0.000322334,3.53E-72,6.31E-14,0.016254
229.855,96.45885,98.77218,99.06977,0.127498,0.0767136,0.0278873,0.143701,0.002996267,3.04718E-33,1.02E-12,0.146697,0.0579727,0.001623253,5.74785E-46,4.37E-16,0.0595959,0.0270163,0.000682436,1.28824E-67,2.83E-13,0.0276987
240.3593,94.65722,97.76053,98.61215,0.205044,0.114193,0.0562668,0.214007,0.008542277,5.52546E-30,8.72E-12,0.222549,0.0976601,0.003890602,3.63961E-42,4.52E-15,0.101551,0.04504801,0.001444497,4.69738E-63,1.27E-12,0.0464925
250.863,91.96754,96.24748,97.90818,0.310033,0.167266,0.08144702,0.294176,0.0242308,1.00193E-26,7.44E-11,0.318407,0.154781,0.009309261,2.30463E-38,4.66E-14,0.16409,0.073128,0.003056018,1.71282E-58,5.69E-12,0.076184
261.367,88.05363,94.07132,96.85458,0.456271,0.265532,0.0998309,0.3708619,0.067764,1.8168E-23,6.35E-10,0.438626,0.226046,0.0221856,1.45932E-34,4.81E-13,0.248231,0.114015,0.006458645,6.24555E-54,2.55E-11,0.120474
271.871,82.37462,90.83495,95.31158,0.633852,0.358079,0.183226,0.428391,0.18238,3.29439E-20,5.42E-09,0.610771,0.300597,0.0523733,9.24054E-31,4.96E-12,0.35297,0.168081,0.0136198,2.27733E-49,1.14E-10,0.181701
282.376,74.47291,86.33202,93.10613,0.894231,0.509873,0.243969,0.44298,4.47E-01,5.97E-17,4.62E-08,0.889601,0.365149,0.120963,5.85123E-27,5.12E-11,0.486112,0.231136,0.0285884,8.30397E-45,5.13E-10,0.259725
292.88,63.49081,80.05076,89.93223,1.20401,0.699675,0.354246,0.363416,9.06E-01,1.08E-13,3.94E-07,1.26897,0.410616,2.66E-01,3.70504E-23,5.29E-10,0.676908,0.294739,0.0594352,3.0279E-40,2.30E-09,0.354174
303.384,48.86554,71.44114,85.53309,1.64133,0.945959,0.480729,0.186017,1.41E+00,1.96E-10,3.36E-06,1.59972,0.429065,5.33E-01,2.35E-19,5.46E-09,0.962353,0.350088,0.121181,1.10408E-35,1.03E-08,0.471269
313.888,30.63379,59.92364,79.50309,1.85555,1.19206,0.664279,0.0580706,1.76E+00,3.55E-07,2.87E-05,1.81702,0.3952247,9.16E-01,1.49E-15,5.63E-08,1.31125,0.391914,2.38E-01,4.02583E-31,4.62E-08,0.629797
324.392,11.90624,45.34107,71.4201,1.49392,1.58635,0.860951,1.43E-02,1.25E+00,0.000636345,2.44E-04,1.26052,2.65E-01,1.31E+00,9.41E-12,5.82E-07,1.5723,0.417255,4.36E-01,1.47E-26,2.07E-07,0.85356
334.896,7.38008,27.70916,61.05362,0.133499,1.72786,1.21566,3.27E-03,1.00E-04,0.124792,2.06E-03,0.130229,1.06E-01,1.59E+00,5.95E-08,6.00E-06,1.69522,0.413054,7.20E-01,5.35E-22,9.30E-07,1.1329
345.4,5.92218,10.68219,48.16242,0.146563,1.14033,1.28117,7.36E-04,2.78E-09,1.17E-01,1.63E-02,0.133885,2.86E-02,9.17E-01,0.000374377,6.19E-05,0.946194,0.32516,1.04E+00,1.95E-17,4.17E-06,1.36374
355.904,4.40655,8.73911,33.44634,0.1444,0.117822,1.456,1.65E-04,7.67E-14,6.32E-02,8.44E-02,0.147823,6.71E-03,5.52E-05,0.128728,0.00063714,0.136133,0.140937,1.31E+00,7.12E-13,1.87E-05,1.45408
366.408,2.55949,7.33906,17.8699,0.19685,0.152034,1.43863,3.68E-05,0.00E+00,1.91E-02,1.66E-01,0.18485,1.52E-03,1.54E-09,1.21E-01,6.35E-03,0.128824,3.31E-02,1.48E+00,2.59E-08,8.38E-05,1.5082
376.912,0.55927,5.89126,8.88475,0.184765,0.132829,-0.003068343,8.20E-06,0.00E+00,4.23E-03,0.183708,0.187951,3.39E-04,4.27611E-14,7.34E-02,4.86E-02,0.122324,6.13E-03,8.07E-02,9.35E-04,0.000374983,0.0881159
387.416,-0.222,4.29241,8.43962,-0.004403521,0.1688,0.0870968,1.83E-06,0.00E+00,0.000861071,3.09E-04,0.00117239,7.58E-05,0,2.25E-02,1.36E-01,0.158812,1.08E-03,8.00E-05,9.21E-02,1.67E-03,0.0949623
397.92,-0.26084,2.50062,7.45342,0.002392851,0.169889,0.100098,4.08E-07,0.00E+00,0.000171888,8.52E-09,0.000172304,1.69E-05,0,4.51E-03,1.63E-01,0.167737,1.88E-04,7.40E-08,9.03E-02,7.17E-03,0.0976605
408.424,-0.275,0.95683,6.3689,0.004063215,0.111869,0.115466,9.10E-08,0,3.41841E-05,2.34E-13,3.43E-05,3.77E-06,0,0.000803986,9.40E-02,0.0947817,3.27E-05,6.78E-11,8.20E-02,2.72E-02,0.10927
418.9284,-0.28898,0.56234,5.0705,0.003822336,0,0.12842,2.03E-08,0,6.7933E-06,0.00E+00,6.81E-06,8.41E-07,0,0.000140283,3.13E-03,0.003266791,5.69E-06,6.20E-14,5.81E-02,7.23E-02,0.130457
429.432,-0.32959,0.56103,3.5419,0.007655095,0.001597028,0.13042,4.53E-09,0,1.34981E-06,0.00E+00,1.35E-06,1.88E-07,0,2.43812E-05,4.77E-05,7.22E-05,9.88E-07,0,2.52E-02,1.15E-01,0.139892
439.937,-0.33073,0.54486,2.03975,0.001298544,0.00022515,0.139049,1.01E-09,0,2.68196E-07,0.00E+00,2.69E-07,4.18E-08,0,4.23456E-06,7.14E-07,4.99E-06,1.72E-07,0,7.11E-03,1.30E-01,1.37E-01
450.4406,-0.33667,0.53044,0.76357,0.001853568,-0.001853585,0.100323,2.25E-10,0,5.32878E-08,0.00E+00,5.35E-08,9.32E-09,0,7.35375E-07,1.07E-08,7.55E-07,2.98E-08,0,0.001686714,8.30E-02,8.47E-02
460.945,-0.34261,0.537,0.22485,0.003351086,-0.004115521,0.006864496,5.02E-11,0,1.05878E-08,0.00E+00,1.06E-08,2.08E-09,0,1.27703E-07,1.60E-10,1.30E-07,5.18E-09,0,0.000381515,6.14E-03,6.52E-03
471.449,-0.35175,0.54967,0.22653,0.001434678,0.003434845,0,1.12E-11,0,2.10368E-09,0.00E+00,2.11E-09,4.64E-10,0,2.21765E-08,2.40E-12,2.26E-08,8.99E-10,0,8.535E-05,1.94E-04,2.79E-04
481.953,-0.35261,0.55666,0.23048,0.007173428,-0.005031883,-0.004382576,2.50E-12,0,4.1798E-10,0.00E+00,4.20E-10,1.03E-10,0,3.85108E-09,3.59E-14,3.95E-09,1.56E-10,0,1.90467E-05,5.85E-06,2.49E-05
492.457,-0.35723,0.55014,0.25251,-0.004068431,-0.00389039,-0.00065451,5.57E-13,0,8.30483E-11,0.00E+00,8.36E-11,2.31E-11,0,6.68764E-10,5.25E-16,6.92E-10,2.71E-11,0,4.2481E-06,1.77E-07,4.42E-06
498.186,-0.36151,0.54093,0.25039,0.009749508,-0.000911071,0,2.46E-13,0,3.43968E-11,0.00E+00,3.46E-11,1.02E-11,0,2.5737E-10,3.75E-17,2.68E-10,1.04E-11,0,1.87386E-06,2.62E-08,1.90E-06

File: Tb_TGA.csv
temperature,rate_3,rate_5,rate_10,rate_3_diff,rate_5_diff,rate_10_diff,rate_3_diff_reaction_0,rate_3_diff_reaction_1,rate_3_diff_reaction_2,rate_3_diff_reaction_3,rate_3_diff_reaction_4,rate_3_diff_reaction_5,rate_3_diff_cumulative,rate_5_diff_reaction_0,rate_5_diff_reaction_1,rate_5_diff_reaction_2,rate_5_diff_reaction_3,rate_5_diff_reaction_4,rate_5_diff_reaction_5,rate_5_diff_cumulative,rate_10_diff_reaction_0,rate_10_diff_reaction_1,rate_10_diff_reaction_2,rate_10_diff_reaction_3,rate_10_diff_reaction_4,rate_10_diff_reaction_5,rate_10_diff_cumulative
30.586,100,100,100,0,0,0,3.25E-06,1.86E-13,4.03E-08,3.91E-270,1.96E-25,1.26E-31,3.29E-06,1.58E-06,2.09E-14,3.23E-17,7.54E-292,4.47E-32,2.52E-28,1.58E-06,6.98E-07,5.96E-13,2.09E-28,9.38E-174,9.95E-34,1.03E-43,6.98E-07
42.9999,99.35701,100.352,99.47056,-0.000218738,-0.000566073,-0.003295446,6.47E-06,8.79E-13,8.36E-08,2.37E-259,1.55E-24,1.51E-30,6.55E-06,3.16E-06,9.85E-14,1.52E-16,4.57E-281,5.35E-31,1.99E-27,3.16E-06,1.39E-06,2.20E-12,2.50E-27,9.18E-168,1.19E-32,2.30E-42,1.39E-06
55.41379,99.38529,100.365,99.47915,-0.001926047,-0.00173397,-0.00111825,1.29E-05,4.15E-12,1.74E-07,1.44E-248,1.23E-23,1.81E-29,1.31E-05,6.29E-06,4.65E-13,7.19E-16,2.77E-270,6.41E-30,1.58E-26,6.29E-06,2.77E-06,8.14E-12,2.99E-26,8.97E-162,1.43E-31,5.11E-41,2.77E-06
67.82769,99.39667,100.361,99.48596,-0.002114192,-0.000948055,0.000815644,2.57E-05,1.96E-11,3.60E-07,8.71E-238,9.71E-23,2.16E-28,2.61E-05,1.25E-05,2.19E-12,3.3957E-15,1.68E-259,7.67E-29,1.25E-25,1.25347E-05,5.53E-06,3.01E-11,3.58E-25,8.78E-156,1.71E-30,1.14E-39,5.53E-06
80.24158,99.38741,100.362,99.48837,-3.69739E-05,0.001019604,0.000158106,5.12E-05,9.24E-11,7.47532E-07,5.28E-227,7.68E-22,2.59E-27,5.19742E-05,2.50E-05,1.04E-11,1.60265E-14,1.02E-248,9.19E-28,9.89E-25,2.49815E-05,1.10E-05,1.11E-10,4.29E-24,8.58E-150,2.05E-29,2.54E-38,1.10E-05
92.65548,99.36117,100.367,99.45978,0.000515997,-0.002371168,0.000776407,1.02E-04,4.36E-10,1.55154E-06,3.20E-216,6.08E-21,3.10E-26,0.00010364,4.98E-05,4.89E-11,7.56399E-14,6.17E-238,1.10E-26,7.83E-24,4.9786E-05,2.20E-05,4.10E-10,5.14E-23,8.39E-144,2.45E-28,5.65E-37,2.20E-05
105.069,99.36903,100.379,99.44381,-0.00027023,-0.001237604,0.002311269,2.03E-04,2.06E-09,3.22031E-06,1.94E-205,4.82E-20,3.72E-25,0.000206656,9.92E-05,2.31E-10,3.56995E-13,3.74E-227,1.32E-25,6.20E-23,9.92133E-05,4.38E-05,1.52E-09,6.15E-22,8.21E-138,2.93E-27,1.26E-35,4.38E-05
117.483,99.36274,100.36,99.43654,-0.004711525,0.001649256,0.000479087,0.000405321,9.71E-09,6.68391E-06,1.18E-194,3.81E-19,4.45E-24,0.000412015,1.98E-04,1.09E-09,1.68489E-12,2.27E-216,1.58E-24,4.91E-22,0.000197688,8.72E-05,5.60E-09,7.37E-21,8.03E-132,3.51E-26,2.80E-34,8.72E-05
129.897,99.31134,100.349,99.41909,0.002431661,0.000807307,-0.000823564,0.000807305,4.58E-08,1.38727E-05,7.12E-184,3.02E-18,5.33E-23,0.000821224,0.000393805,5.14E-09,7.95212E-12,1.37E-205,1.89E-23,3.88E-21,0.00039381,1.74E-04,2.07E-08,8.82164E-20,7.85E-126,4.21E-25,6.25E-33,0.00017376
142.311,99.27669,100.324,99.41524,0.002233433,0.000687059,-0.00046341,0.001606946,2.16E-07,2.87931E-05,4.32E-173,2.39E-17,6.38E-22,0.001635955,0.000784102,2.43E-08,3.75313E-11,8.33E-195,2.26E-22,3.07E-20,0.000784126,0.000346085,7.64E-08,1.05635E-18,7.68E-120,5.04E-24,1.39E-31,0.000346162
154.725,99.24316,100.292,99.40992,0.005292895,0.003345085,0.003910786,0.003194605,1.02E-06,5.97598E-05,2.62E-162,1.89E-16,7.64E-21,0.003255386,0.001559709,1.14E-07,1.77135E-10,5.05E-184,2.71E-21,2.43E-19,0.001559823,0.000689033,2.82E-07,1.26492E-17,7.51E-114,6.03E-23,3.10E-30,0.000689315
167.139,99.14219,100.245,99.37119,0.00679964,0.00322937,0.003309265,0.006335003,4.82E-06,0.000124026,1.59E-151,1.50E-15,9.15E-20,0.00646385,0.00309657,5.40E-07,8.36018E-10,3.06E-173,3.24E-20,1.93E-18,0.003097111,0.001370384,1.04E-06,1.51468E-16,7.34E-108,7.22E-22,6.90E-29,0.001371427
179.553,98.97304,100.156,99.30342,0.0175136,0.008649694,0.00310862,0.0125004,2.27E-05,0.000257387,9.62E-141,1.19E-14,1.10E-18,0.0127805,0.006124484,2.55E-06,3.94572E-09,1.85E-162,3.88E-19,1.53E-17,0.006127038,0.00271984,3.85E-06,1.81375E-15,7.18E-102,8.65E-21,1.54E-27,0.002723692
191.967,98.68196,100.008,99.24387,0.02759538,0.0169447,0.007573695,0.0244261,0.000107356,0.000534064,5.83E-130,9.39E-14,1.31E-17,0.0250675,0.0120234,1.20E-05,1.86225E-08,1.12E-151,4.65E-18,1.21E-16,0.0120354,0.005376065,1.42E-05,2.17188E-14,7.02E-96,1.04E-19,3.43E-26,0.005390293
204.381,98.09922,99.74174,99.12449,0.0512423,0.0272198,0.0136014,0.0468204,0.000506468,0.001107803,3.53E-119,7.43E-13,1.57E-16,0.0484347,0.0232669,5.68E-05,8.78916E-08,6.81E-141,5.57E-17,9.56E-16,0.0233238,0.0105415,5.26E-05,2.60071E-13,6.87E-90,1.24E-18,7.63E-25,0.010594
216.794,97.0934,99.27614,98.905,0.0909914,0.0482693,0.0234274,0.086402,0.002385527,0.002296397,2.14E-108,5.88E-12,1.88E-15,0.091084,0.0438258,0.000268013,4.14819E-07,4.13E-130,6.67E-16,7.57E-15,0.0440942,0.0203534,0.000194099,3.11423E-12,6.72E-84,1.49E-17,1.70E-23,0.0205475
229.208,95.36158,98.50304,98.48966,0.157933,0.0812593,0.046871,0.147502,0.0111525,0.004753809,1.30E-97,4.66E-11,2.25E-14,0.163408,0.07865724,0.001263395,1.9578E-06,2.50E-119,7.99E-15,5.99E-14,0.0799226,0.0381848,0.0007165,3.72912E-11,6.57E-78,1.78E-16,3.79E-22,0.0389013
241.622,92.45843,97.17878,97.75771,0.26418,0.136079,0.0807275,0.211144,0.0503883,0.009813422,7.87E-87,3.69E-10,2.70E-13,0.271346,0.130216,0.005928821,9.24003E-06,1.52E-108,9.56E-14,4.74E-13,0.136154,0.0681072,0.002639813,4.46544E-10,6.42E-72,2.13E-15,8.43E-21,0.070747
254.036,87.78341,95.06622,96.61003,0.428707,0.224352,0.122345,0.200385,0.197926,0.0201421,4.77E-76,2.92E-09,3.23E-12,0.418453,0.189563,0.0272492,4.36072E-05,9.20E-98,1.15E-12,3.76E-12,0.216856,0.112002,0.009657533,5.34714E-09,6.28E-66,2.55E-14,1.88E-19,0.12166
266.45,80.4919,91.63706,94.663,0.641509,0.343242,0.200137,0.0986028,0.521393,0.0408643,2.89E-65,2.31E-08,3.87E-11,0.66086,0.220839,0.114459,0.000205754,5.58E-87,1.37E-11,2.97E-11,0.335503,0.163806,0.0344477,6.40293E-08,6.14E-60,3.05E-13,4.19E-18,0.198254
278.8639,69.82137,86.42953,91.59971,0.916796,0.518892,0.312531,0.0293846,0.797541,0.0810276,1.75E-54,1.83E-07,4.63E-10,0.907954,0.165257,0.355565,0.000969807,3.38E-76,1.64E-10,2.35E-10,0.521793,0.202777,0.112898,7.66717E-07,6.01E-54,3.66E-12,9.32E-17,0.315676
291.2778,56.66528,78.92872,86.86573,1.01177,0.697765,0.466633,0.00709846,8.71E-01,0.153908,1.06E-43,1.45E-06,5.54E-09,1.03194,0.0660774,0.641462,0.004548872,2.05E-65,1.97E-09,1.86E-09,0.712089,0.186667,0.294349,9.18091E-06,5.87E-48,4.38E-11,2.08E-15,0.481024
303.692,49.1903,69.52545,80.18751,0.292823,0.795498,0.616029,0.001590603,2.87E-02,0.271613,6.44E-33,1.15E-05,6.64E-08,0.3019,0.0174098,7.54E-01,0.0208606,1.24E-54,2.35E-08,1.48E-08,0.791788,0.0996121,0.520231,0.000109915,5.75E-42,5.24E-10,4.63E-14,0.619953
316.106,43.9537,60.36383,72.04207,0.435682,0.620578,0.67951,0.000345921,3.01E-05,0.430081,3.90E-22,9.07E-05,7.95E-07,0.430548,0.003948796,4.99E-01,0.0868374,7.53E-44,2.82E-07,1.17E-07,0.5899,0.0305612,0.643877,0.001313136,5.62E-36,6.28E-09,1.03E-12,0.675751
328.519,38.31795,55.34501,63.89497,0.525346,0.357347,0.59296,7.42E-05,3.04875E-08,0.520967,2.33E-11,0.000712923,9.51839E-06,0.521763,0.000856938,5.50E-02,0.263242,4.56E-33,3.38E-06,9.25E-07,0.319096,0.007231756,5.57E-01,0.0153001,5.49E-30,7.52E-08,2.30E-11,0.579368
340.933,38.05907,50.29052,58.09976,0.024104,0.467899,0.301696,1.58E-05,3.08374E-11,0.000353887,0.0232622,0.005341957,0.000113893,0.0290877,1.83E-04,2.64E-03,0.462131,2.76E-22,4.04E-05,7.32E-06,0.465006,0.001583555,1.69E-01,0.138492,5.37E-24,9.00E-07,5.11E-10,0.309444
353.347,37.59149,43.99634,53.67225,0.0455295,0.477224,0.433559,3.36E-06,3.11813E-14,2.84E-08,0.005950977,0.029383,0.001351742,0.03668908,3.90E-05,1.19E-04,0.46221,1.63676E-11,0.000481261,5.79289E-05,0.462908,0.000339357,1.81E-02,0.422742,5.25E-18,1.08E-05,1.14E-08,0.441198
365.761,36.84799,42.01027,47.72182,0.06962837,0.0294852,0.509807,7.14E-07,0,2.16E-12,0.000475846,0.0570429,0.0146356,0.0721551,8.29E-06,5.34807E-06,1.28E-03,0.0226389,0.005430617,0.000457388,0.0298228,7.22E-05,1.55E-03,0.507166,5.13E-12,1.29E-04,2.54E-07,0.508917
378.175,35.64608,41.51249,42.35627,0.102297,0.0524573,0.160155,1.51E-07,0,2.02E-16,3.14596E-05,0.0212151,0.0815741,0.102821,1.76E-06,2.40097E-07,5.54E-07,0.006759162,0.0382396,0.003546235,0.04854753,1.53E-05,1.30E-04,0.130874,4.93056E-06,0.001523239,5.65055E-06,0.132552
390.589,34.86311,40.71344,41.90213,0.0466282,0.08206664,0.0409563,3.21E-08,0,0,2.05E-06,0.002343185,0.0430777,0.045423,3.73E-07,1.07787E-08,2.37E-10,7.11E-04,0.0569865,0.0241291,0.0818273,3.25E-06,1.08E-05,3.53E-04,0.0209068,0.0157118,0.000125755,0.0371113
403.003,34.68845,39.5335,41.21109,0.0102089,0.110252,0.0682762,6.80E-09,0,0,1.34E-07,0.00020119,1.72E-05,0.000218487,7.90E-08,4.8389E-10,1.01215E-13,6.07E-05,0.0180541,0.0903373,0.108452,6.90E-07,9.05E-07,7.12E-07,0.002858641,0.06681222,0.002746784,0.07242
415.417,34.49756,38.19898,40.20462,0.0146404,0.0335847,0.0948218,1.44E-09,0,0,8.70E-09,1.68E-05,4.39E-09,1.69E-05,1.67E-08,2.17232E-11,0,5.08E-06,0.002737627,3.02E-02,0.032919,1.46E-07,7.56E-08,1.43E-09,1.41E-04,0.0479832,0.0426977,0.0908223
427.831,34.33757,38.09653,38.85079,0.00968108,0.006451945,0.120881,3.05E-10,0,0,5.67E-10,1.41E-06,1.12E-12,1.41E-06,3.55E-09,9.75202E-13,0,4.24E-07,3.55E-04,1.05E-05,3.66E-04,3.10E-08,6.31E-09,2.89E-12,6.37E-06,0.007125546,0.114504,0.121636
440.245,34.13308,37.98151,38.13517,0.0107392,0.008325042,0.003171512,6.47E-11,0,0,3.69E-11,1.17E-07,2.79775E-16,1.18E-07,7.51E-10,4.36984E-14,0,3.54E-08,4.49E-05,2.71E-09,4.50E-05,6.56E-09,5.27106E-10,5.77E-15,2.86E-07,6.35E-04,1.79E-03,2.43E-03
452.658,33.99192,37.87467,38.10701,0.008330761,0.007273878,0.000946015,1.37E-11,0,0,2.40E-12,9.81E-09,0,9.83E-09,1.59E-10,2.00284E-15,0,2.96E-09,5.68E-06,6.89433E-13,5.68E-06,1.39E-09,4.40192E-11,0,1.28E-08,5.33E-05,1.85E-06,5.52E-05
465.072,33.87651,37.76286,38.06062,0.007097752,0.007043804,0.002093915,2.90E-12,0,0,1.57E-13,8.19E-10,0,8.22E-10,3.37E-11,0,0,2.47E-10,7.17E-07,1.6653E-16,7.17E-07,2.95E-10,3.6761E-12,0,5.76E-10,4.45E-06,1.87E-09,4.46E-06
477.486,33.77478,37.67569,38.02198,0.009048391,0.006275586,0.004430745,6.15E-13,0,0,1.02E-14,6.84E-11,0,6.91E-11,7.15E-12,0,0,2.06E-11,9.06E-08,0,9.06E-08,6.24E-11,3.07003E-13,0,2.59E-11,3.72E-07,1.88927E-12,3.72E-07
489.9,33.66426,37.58284,37.97106,0.007386192,0.007474823,0.006011218,1.30E-13,0,0,6.66E-16,5.71E-12,0,5.85E-12,1.51E-12,0,0,1.72E-12,1.14E-08,0,1.14E-08,1.32E-11,2.56106E-14,0,1.16E-12,3.11E-08,1.91847E-15,3.11E-08
497.539,33.59171,37.53872,37.93379,-0.0696979,-0.0754487,-0.07624278,5.02E-14,0,0,1.27E-16,1.24E-12,0,1.29E-12,5.83E-13,0,0,3.74E-13,3.20E-09,0,3.20E-09,5.09E-12,5.51115E-15,0,1.72E-13,6.74E-09,2.9976E-17,6.75E-09