Folder: isoconversion_study_of_reaction_kinetics/src/TGA

Note: README.md
# isoconversion_study_of_reaction_kinetics
 isoconversion study of the kinetics of the solid-phase reaction of chlorination of oxides of rare-earth metals

File: Dy_TGA.csv
temperature;rate_3;rate_5;rate_10;rate_3_diff;rate_5_diff;rate_10_diff;rate_3_diff_reaction_0;rate_3_diff_reaction_1;rate_3_diff_reaction_2;rate_3_diff_reaction_3;rate_3_diff_reaction_4;rate_3_diff_reaction_5;rate_3_diff_reaction_6;rate_3_diff_cumulative;rate_5_diff_reaction_0;rate_5_diff_reaction_1;rate_5_diff_reaction_2;rate_5_diff_reaction_3;rate_5_diff_reaction_4;rate_5_diff_reaction_5;rate_5_diff_reaction_6;rate_5_diff_cumulative;rate_10_diff_reaction_0;rate_10_diff_reaction_1;rate_10_diff_reaction_2;rate_10_diff_reaction_3;rate_10_diff_reaction_4;rate_10_diff_reaction_5;rate_10_diff_reaction_6;rate_10_diff_cumulative
31.63192;99.99894;100.076;99.96317;0.000189379;0.0257306;-0.006491155;1.06E-07;1.90E-14;2.60E-17;1.79E-05;2.16E-193;1.15E-36;6.83E-23;1.80E-05;3.33E-08;2.45E-32;1.09E-17;3.00E-05;3.21E-201;1.96E-38;1.69E-27;3.00E-05;2.16E-08;3.68E-18;1.23E-16;1.12E-06;4.32E-201;1.72E-53;3.65E-34;1.14E-06
45.95564;99.99343;100.052;99.98957;-0.000913434;-0.002663677;-0.00097913;3.49E-07;1.47E-13;2.83E-16;3.13E-05;1.67E-184;4.14E-35;5.28E-22;3.17E-05;1.16E-07;2.90E-30;1.18E-16;5.00E-05;2.47E-192;7.04E-37;1.84E-26;5.01E-05;7.12E-08;4.00E-17;9.54E-16;2.15E-06;7.82E-193;2.04E-51;6.40E-33;2.22E-06
60.27937;100.012;100.042;99.98661;-0.001959111;0.000564782;-0.001293436;1.15E-06;1.14E-12;3.08E-15;5.50E-05;1.28E-175;1.49E-33;4.09E-21;5.61E-05;4.02E-07;3.43E-28;1.29E-15;8.34E-05;1.91E-183;2.53E-35;2.00E-25;8.38E-05;2.35E-07;4.36E-16;7.38E-15;4.12E-06;1.41E-184;2.42E-49;1.12E-31;4.35E-06
74.60309;100.032;100.055;99.98603;0.002056851;0.000225188;-0.000515182;3.80E-06;8.81E-12;3.36E-14;9.64E-05;9.90E-167;5.33E-32;3.16E-20;1.00E-04;1.40E-06;4.06E-26;1.40085E-14;1.39E-04;1.47E-174;9.07E-34;2.17E-24;0.000140524;7.75E-07;4.74E-15;5.71E-14;7.90E-06;2.56E-176;2.87E-47;1.97E-30;8.67E-06
88.92682;100.01;100.049;99.97739;-0.002323238;0.000617585;0.001246428;1.25E-05;6.82E-11;3.65436E-13;1.69E-04;7.62E-158;1.92E-30;2.45E-19;0.000181525;4.85E-06;4.81E-24;1.52468E-13;2.32E-04;1.13E-165;3.26E-32;2.37E-23;0.000236863;2.56E-06;5.16E-14;4.42E-13;1.51E-05;4.63E-168;3.39E-45;3.46E-29;1.77E-05
103.251;100.017;100.033;99.972;-0.001902857;0.002377494;0.002511419;4.13E-05;5.28E-10;3.97738E-12;2.96E-04;5.87E-149;6.88E-29;1.89E-18;0.000337631;1.69E-05;5.70E-22;1.65945E-12;3.87E-04;8.71E-157;1.17E-30;2.58E-22;0.000403722;8.44E-06;5.62E-13;3.42E-12;2.90E-05;8.39E-160;4.02E-43;6.06E-28;3.75E-05
117.574;100.018;100.034;99.95904;0.001641233;0.000176685;0.000536405;0.000136262;4.08E-09;4.32895E-11;5.19E-04;4.53E-140;2.47E-27;1.47E-17;0.000655737;5.86E-05;6.76E-20;1.80614E-11;6.45E-04;6.71E-148;4.20E-29;2.80E-21;0.000703525;2.78E-05;6.12E-12;2.65E-11;5.57E-05;1.52E-151;4.76E-41;1.06E-26;8.35E-05
131.898;99.98107;100.008;99.94187;0.005540006;0.002303718;0.001373828;0.000449201;3.16E-08;4.7116E-10;9.10E-04;3.49E-131;8.87E-26;1.13E-16;0.001359681;0.000203478;8.00E-18;1.96579E-10;1.07E-03;5.17E-139;1.51E-27;3.05E-20;0.001278322;9.18E-05;6.66E-11;2.04973E-10;1.07E-04;2.75E-143;5.64E-39;1.87E-25;0.000198558
146.222;99.92484;99.9864;99.92728;0.002753285;0.002796105;0.002415096;0.001478245;2.45E-07;5.12808E-09;1.59E-03;2.69E-122;3.18E-24;8.78E-16;0.003073481;0.000705778;9.48E-16;2.13955E-09;1.79E-03;3.99E-130;5.42E-26;3.32E-19;0.00249617;0.000302652;7.24E-10;1.58624E-09;2.05E-04;4.97E-135;6.68E-37;3.27E-24;0.000507313
160.545;99.8314;99.90683;99.87211;0.0102102;0.005875072;0.004215636;0.004836724;1.89E-06;5.58136E-08;2.79E-03;2.07E-113;1.14E-22;6.79E-15;0.007630715;0.002437235;1.12E-13;2.32867E-08;2.98E-03;3.07E-121;1.94E-24;3.61E-18;0.00541696;0.000995935;7.88E-09;1.22756E-08;3.92E-04;9.00E-127;7.92E-35;5.74E-23;0.001388249
174.869;99.64749;99.78184;99.80106;0.0217694;0.0108537;0.009706025;0.0155316;1.46E-05;6.07471E-07;4.88E-03;1.59E-104;4.11E-21;5.26E-14;0.0204278;0.008290211;1.33E-11;2.53451E-07;4.95E-03;2.37E-112;6.98E-23;3.93E-17;0.0132424;0.003258329;8.58E-08;9.49984E-08;7.52E-04;1.63E-118;9.38E-33;1.01E-21;0.004010188
189.193;99.05285;99.45144;99.6668;0.0640888;0.0369344;0.0138333;0.0470473;0.0001133;6.61159E-06;8.51E-03;1.23E-95;1.47E-19;4.07E-13;0.0556797;0.02683738;1.58E-09;2.75852E-06;8.21E-03;1.82E-103;2.51E-21;4.28E-16;0.03505;0.0104621;9.34E-07;7.35172E-07;1.44E-03;2.95E-110;1.11E-30;1.77E-20;0.011903
203.517;97.73303;98.61413;99.37113;0.139784;0.088461;0.0377369;0.121398;0.000873906;7.19514E-05;1.48E-02;9.46E-87;5.29E-18;3.15E-12;0.137129;0.0753261;1.87E-07;3.00215E-05;1.36E-02;1.40E-94;9.00E-20;4.66E-15;0.0889144;0.0317108;1.02E-05;5.68927E-06;2.75E-03;5.33E-102;1.32E-28;3.10E-19;0.0344787
217.84;94.96756;96.76612;98.49105;0.251839;0.170023;0.0942612;0.223908;0.006593887;0.000782074;2.55E-02;7.29E-78;1.90E-16;2.44E-11;0.256785;0.156491;2.21146E-05;0.00032651;2.22E-02;1.08E-85;3.23E-18;5.07E-14;0.179087;0.0823572;0.000110568;4.40235E-05;5.25E-03;9.65E-94;1.56E-26;5.44E-18;0.0877604
232.164;90.60993;93.54285;96.57292;0.347977;0.266807;0.168283;0.251137;0.0427089;0.00839081;4.35E-02;5.62E-69;6.82E-15;1.89E-10;0.345702;0.222554;0.002577827;0.003525271;3.61E-02;8.33E-77;1.16E-16;5.52E-13;0.264787;0.157874;0.001195248;0.000340413;9.96E-03;1.75E-85;1.85E-24;9.55E-17;0.16937
246.488;84.9307;88.77253;93.55554;0.451558;0.451331;0.247523;0.153783;0.139952;0.079068;7.26E-02;4.33E-60;2.45E-13;1.46E-09;0.445449;0.226128;0.105479;0.0352943;5.77E-02;6.42E-68;4.17E-15;6.01E-12;0.424629;0.208111;0.0121145;0.002617929;1.87E-02;3.16E-77;2.19E-22;1.68E-15;0.241571
260.812;77.26695;81.22216;89.52465;0.610277;0.577196;0.330393;0.0545764;0.07703546;0.349226;1.18E-01;3.33E-51;8.80E-12;1.13E-08;0.598543;0.13906;0.143833;0.205184;9.00E-02;4.95E-59;1.50E-13;6.54E-11;0.578054;0.195873;0.0753951;0.0193255;3.46E-02;5.72E-69;2.59E-20;2.94E-14;0.325213
275.135;70.57408;73.01438;83.94623;0.187765;0.529919;0.452292;0.0146913;0.003505603;0.01269873;1.82E-01;2.57E-42;3.16E-10;8.74E-08;0.213018;0.040642;0.0116408;0.337998;1.35E-01;3.81E-50;5.37E-12;7.12E-10;0.52557;0.129604;0.14061;0.110208;6.21E-02;1.04E-60;3.07E-18;5.16E-13;0.44252
289.459;67.2291;68.4466;77.11504;0.266018;0.24295;0.479751;0.003619116;9.99E-05;4.89826E-07;2.65E-01;1.98E-33;1.13E-08;6.76E-07;0.268459;0.007750542;0.000105912;0.00156326;1.94E-01;2.94E-41;1.93E-10;7.75E-09;0.203227;0.0594563;0.03342361;0.275184;1.06E-01;1.87E-52;3.64E-16;9.05E-12;0.474019
303.783;62.8393;64.74074;71.1627;0.349851;0.272845;0.288882;0.000870863;2.79E-06;1.77189E-11;3.57E-01;1.52E-24;4.07E-07;5.23E-06;0.357996;0.001325464;8.95E-07;5.53275E-07;2.62E-01;2.26E-32;6.93E-09;8.43E-08;0.262994;0.0212765;0.00035981;0.099604;1.68E-01;3.39E-44;4.31E-14;1.59E-10;0.288969
318.106;57.22518;60.419;67.64761;0.44;0.333218;0.256842;0.000208321;7.76308E-08;5.93947E-16;4.46E-01;1.17E-15;1.46E-05;4.05E-05;0.446088;0.000222143;7.55E-09;1.93766E-10;3.31E-01;1.74E-23;2.49E-07;9.18E-07;0.331417;0.006820564;3.04659E-06;0.001208584;2.41E-01;6.14E-36;5.10E-12;2.79E-09;0.249035
332.43;50.37344;55.21202;63.53758;0.40923;0.401192;0.313509;4.98E-05;2.16204E-09;0;4.09E-01;8.87406E-07;0.000521164;0.000312942;0.409418;3.70997E-05;6.38E-11;6.78564E-14;3.94E-01;1.34E-14;8.93E-06;9.99E-06;0.393976;0.002104078;2.57E-08;1.02807E-05;3.12E-01;1.11E-27;6.05E-10;4.89E-08;0.314218
346.754;49.05141;49.55302;58.61133;0.0551728;0.221204;0.381057;1.19E-05;6.02123E-11;0.00E+00;1.43387E-05;0.03332603;0.0147925;0.00239212;0.0505369;6.19E-06;5.38E-13;0;2.03E-01;1.02982E-05;0.000319103;0.000108622;0.203908;0.000641222;2.17E-10;8.68371E-08;3.69E-01;2.01E-19;7.16E-08;8.57E-07;0.36949
361.078;48.10098;48.78096;52.95805;0.0777437;0.04706877;0.387827;2.84E-06;1.67689E-12;0.00E+00;1.03443E-10;0.006298765;0.0589917;0.0169088;0.0822021;1.03E-06;4.54747E-15;0.00E+00;2.89653E-05;0.0328616;0.009753194;0.001172901;0.0438177;1.95E-04;1.83E-12;7.33105E-10;4.03E-01;3.64E-11;8.48E-06;1.50E-05;0.403055
375.401;46.76233;47.95108;49.40958;0.112665;0.0732387;0.0322519;6.77E-07;4.66782E-14;0.00E+00;7.01818E-16;0.000413609;0.0300407;0.07834289;0.108798;1.72E-07;3.55271E-17;0.00E+00;2.17268E-09;0.005745064;0.0532956;0.01175624;0.0707971;5.90E-05;1.55E-14;6.18869E-12;0.0271269;0.005806677;0.000990184;0.000263305;0.0342461
389.725;44.94382;46.73625;48.50418;0.0743655;0.101253;0.0797541;1.62E-07;1.27676E-15;0;0.00E+00;2.37809E-05;0.002889958;0.0663107;0.0692246;2.88E-08;0;0.00E+00;1.59861E-13;0.000187566;0.03324785;0.0687657;0.102201;1.79E-05;1.42E-16;5.23E-14;2.31493E-05;0.0323194;0.0427116;0.00445775;0.0795298
404.049;44.85279;45.0592;47.19613;0.004324398;0.118146;0.102883;3.86E-08;5.10703E-17;0;0.00E+00;1.35613E-06;1.71E-04;3.01E-07;0.000173103;4.80E-09;0;0;0.00E+00;5.24886E-06;0.003691508;0.114183;0.11788;5.43E-06;0.00E+00;4.05E-16;1.82514E-08;0.00142813;0.0586486;0.0484389;0.108521
418.372;44.80832;44.66784;45.48561;0.002880439;0.003855525;0.126719;9.22E-09;0;0;0.00E+00;7.73E-08;9.79E-06;6.76E-13;9.88E-06;8.02E-10;0;0;0.00E+00;1.46199E-07;2.22E-04;9.35E-07;0.000223423;1.64E-06;0.00E+00;0.00E+00;1.43E-11;2.74158E-05;0.0113189;0.104677;0.116025
432.696;44.75108;44.6274;45.02656;0.004366815;0.005145237;0.000308441;2.20E-09;0;0;0.00E+00;4.41E-09;5.5822E-07;0;5.65E-07;1.34E-10;0;0;0.00E+00;4.07E-09;1.27E-05;5.66E-13;1.27E-05;4.99E-07;0;0.00E+00;1.11E-14;5.13141E-07;3.77E-04;2.61E-05;0.000404281
447.02;44.71074;44.57097;45.00278;0.002694588;0.004208382;0.000346615;5.25E-10;0;0;0.00E+00;2.51E-10;3.18175E-08;0;3.26E-08;2.23E-11;0;0;0.00E+00;1.13E-10;7.24802E-07;0;7.25E-07;1.51E-07;0;0.00E+00;0.00E+00;9.60E-09;1.06E-05;3.28E-10;1.07E-05
461.344;44.66251;44.52776;44.98184;0.002906496;0.003119543;0.001294285;1.25E-10;0;0;0.00E+00;1.43E-11;1.81352E-09;0;1.95E-09;3.73E-12;0;0;0.00E+00;3.16E-12;4.13124E-08;0;4.13E-08;4.58E-08;0;0;0.00E+00;1.80E-10;2.94E-07;4.10E-15;3.40E-07
475.667;44.61489;44.49463;44.9576;0.000806008;0.002588279;0.001931453;2.99E-11;0;0;0.00E+00;8.16E-13;1.03367E-10;0;1.34E-10;6.22E-13;0;0;0.00E+00;8.79E-14;2.35472E-09;0;2.36E-09;1.39E-08;0;0;0.00E+00;3.36E-12;8.19362E-09;0;2.21E-08
489.991;44.57007;44.44307;44.93208;0.002166104;0.002190873;0.001252473;7.15E-12;0;0;0.00E+00;4.65E-14;5.89165E-12;0;1.31E-11;1.04E-13;0;0;0.00E+00;2.45E-15;1.34213E-10;0;1.34E-10;4.21E-09;0;0;0.00E+00;6.29E-14;2.2819E-10;0;4.44E-09
500.495;44.53659;44.39879;44.91998;0.000426645;0.00477235;-0.000271983;2.50E-12;0;0;0.00E+00;5.69E-15;7.2089E-13;0;3.23E-12;2.50E-12;0;0;0.00E+00;5.69E-15;7.2089E-13;0;3.23E-12;2.50E-12;0;0;0.00E+00;5.69E-15;7.2089E-13;0;3.23E-12

File: Er_TGA.csv
temperature;rate_3;rate_5;rate_10;rate_3_diff;rate_5_diff;rate_10_diff;rate_3_diff_reaction_0;rate_3_diff_reaction_1;rate_3_diff_reaction_2;rate_3_diff_reaction_3;rate_3_diff_reaction_4;rate_3_diff_reaction_5;rate_3_diff_reaction_6;rate_3_diff_cumulative;rate_5_diff_reaction_0;rate_5_diff_reaction_1;rate_5_diff_reaction_2;rate_5_diff_reaction_3;rate_5_diff_reaction_4;rate_5_diff_reaction_5;rate_5_diff_reaction_6;rate_5_diff_cumulative;rate_10_diff_reaction_0;rate_10_diff_reaction_1;rate_10_diff_reaction_2;rate_10_diff_reaction_3;rate_10_diff_reaction_4;rate_10_diff_reaction_5;rate_10_diff_reaction_6;rate_10_diff_cumulative
30.661;100;100;100;0;0;0;8.71E-07;4.22E-22;1.95E-22;4.31E-06;6.26E-180;2.59E-50;4.28E-39;5.18E-06;5.37E-07;6.59E-16;1.11E-16;1.99E-08;2.39E-146;5.92E-51;7.43E-32;5.57E-07;1.65E-07;1.52E-19;7.50E-18;1.49E-10;1.33E-174;2.17E-54;1.06E-41;1.65E-07
44.98472;99.71263;100.398;99.6569;-0.004271157;-0.001725025;-0.001230152;2.02E-06;7.41E-21;3.41E-21;7.64E-06;3.74E-172;3.07E-48;1.54E-37;9.67E-06;1.31E-06;5.10E-15;8.61E-16;4.62E-08;3.98E-140;7.01E-49;1.30E-30;1.36E-06;4.04E-07;1.66E-18;5.80E-17;4.15E-10;1.09E-167;2.57E-52;3.80E-40;4.04E-07
59.30845;99.73609;100.416;99.67501;-0.001847771;0.002400675;-0.002913153;4.70E-06;1.30E-19;5.99E-20;1.36E-05;2.23E-164;3.64E-46;5.52E-36;1.83E-05;3.22E-06;3.95E-14;6.66E-15;1.07E-07;6.61E-134;8.31E-47;2.29E-29;3.32E-06;9.88E-07;1.80E-17;4.49E-16;1.15E-09;8.89E-161;3.04E-50;1.37E-38;9.89E-07
73.63217;99.77172;100.403;99.66764;-0.000123093;0.005553072;-0.001906517;1.09E-05;2.28E-18;1.05E-18;2.40E-05;1.33E-156;4.31E-44;1.98E-34;3.50E-05;7.88E-06;3.06E-13;5.16E-14;2.49E-07;1.10E-127;9.84E-45;4.01E-28;8.12E-06;2.42E-06;1.96E-16;3.47E-15;3.21E-09;7.26E-154;3.60E-48;4.90E-37;2.42E-06
87.9559;99.76429;100.373;99.67172;-0.000173491;0.001498687;0.002235105;2.53E-05;4.00E-17;1.84E-17;4.26E-05;7.95E-149;5.10E-42;7.12E-33;6.80E-05;1.93E-05;2.36E-12;3.99E-13;5.78E-07;1.83E-121;1.17E-42;7.04E-27;1.99E-05;5.92E-06;2.13E-15;2.69E-14;8.93E-09;5.93E-147;4.27E-46;1.76E-35;5.93E-06
102.28;99.76553;100.389;99.65703;-0.000672269;-0.001693265;0.000338702;5.88E-05;7.02E-16;3.24E-16;7.56E-05;4.74E-141;6.05E-40;2.56E-31;0.000134447;4.72E-05;1.83E-11;3.09E-12;1.34E-06;3.04E-115;1.38E-40;1.24E-25;4.85284E-05;1.45E-05;2.32E-14;2.08E-13;2.48E-08;4.84E-140;5.05E-44;6.32E-34;1.45E-05
116.603;99.76471;100.354;99.63185;0.000153932;0.004386428;0.000359127;0.000136641;1.23E-14;5.67632E-15;1.34E-04;2.83E-133;7.16E-38;9.18E-30;0.000270711;1.15E-04;1.42E-10;2.39E-11;3.12E-06;5.05E-109;1.64E-38;2.17E-24;0.000118605;3.55E-05;2.53E-13;1.61E-12;6.91E-08;3.95E-133;5.99E-42;2.27E-32;3.55E-05
130.927;99.75361;100.31;99.62405;0.001225902;0.004161691;0.00318953;0.000317249;2.16E-13;9.95885E-14;2.38E-04;1.69E-125;8.49E-36;3.30E-28;0.000554986;0.000282578;1.10E-09;1.85E-10;7.24E-06;8.39E-103;1.94E-36;3.80E-23;0.000289824;8.68E-05;2.75E-12;1.25E-11;1.92E-07;3.22E-126;7.09E-40;8.15E-31;8.70E-05
145.2508;99.72716;100.244;99.6012;0.001928634;0.002359093;0.003700329;0.00073634;3.79E-12;1.74724E-12;4.22E-04;1.01E-117;1.01E-33;1.18E-26;0.00115786;0.000691018;8.48E-09;1.43E-09;1.68E-05;1.39E-96;2.30E-34;6.67E-22;0.000707852;0.000212363;3.00E-11;9.64E-11;5.35E-07;2.63E-119;8.40E-38;2.93E-29;0.000212898
159.575;99.70284;100.189;99.56515;0.003337913;0.004368717;0.000736566;0.001707779;6.65E-11;3.06546E-11;7.47E-04;6.02E-110;1.19E-31;4.25E-25;0.002455012;0.001687326;6.56E-08;1.11E-08;3.91E-05;2.32E-90;2.72E-32;1.17E-20;0.001726471;0.000519229;3.26E-10;7.46E-10;1.49E-06;2.15E-112;9.95E-36;1.05E-27;0.000520718
173.898;99.64139;100.097;99.52427;0.006543179;0.0117009;0.005271875;0.003953966;1.17E-09;5.37822E-10;1.32E-03;3.59E-102;1.41E-29;1.53E-23;0.005278142;0.004105341;5.08E-07;8.57E-08;9.07E-05;3.85E-84;3.22E-30;2.05E-19;0.004196657;0.001267359;3.55E-09;5.78E-09;4.14E-06;1.75E-105;1.18E-33;3.77E-26;0.001271508
188.222;99.49842;99.9261;99.46789;0.0128577;0.0158823;0.006810699;0.009117997;2.05E-08;9.43585E-09;2.35E-03;2.15E-94;1.67E-27;5.48E-22;0.0114632;0.009902322;3.93E-06;6.63384E-07;2.11E-04;6.41E-78;3.82E-28;3.60E-18;0.0101176;0.00308062;3.86E-08;4.47E-08;1.15E-05;1.43E-98;1.40E-31;1.35E-24;0.003092219
202.5457;99.22366;99.58038;99.37265;0.0288058;0.0313087;0.0104833;0.0208355;3.59E-07;1.65548E-07;4.15E-03;1.28E-86;1.98E-25;1.97E-20;0.024985;0.0234009;3.04E-05;5.13377E-06;4.89E-04;1.07E-71;4.52E-26;6.32E-17;0.0239255;0.007413749;4.20E-07;3.46E-07;3.20E-05;1.17E-91;1.65E-29;4.86E-23;0.007446549
216.869;98.65147;98.95977;99.18814;0.0560708;0.0586464;0.017182;0.0466482;6.30E-06;2.90446E-06;7.33E-03;7.64E-79;2.34E-23;7.07E-19;0.0539838;0.0528041;0.00023525;3.97271E-05;1.13E-03;1.77E-65;5.36E-24;1.11E-15;0.0542135;0.0174271;4.58E-06;2.68E-06;8.91E-05;9.55E-85;1.96E-27;1.75E-21;0.0175234
231.193;97.46614;97.78251;98.81687;0.118108;0.115019;0.0383395;0.0999273;1.11E-04;5.09545E-05;1.29E-02;4.56E-71;2.78E-21;2.54E-17;0.112983;0.108386;0.001812328;0.000307317;2.63E-03;2.94E-59;6.35E-22;1.95E-14;0.113134;0.0388691;4.97938E-05;2.07168E-05;2.48E-04;7.79E-78;2.32E-25;6.27E-20;0.0391874
245.517;95.05568;95.54659;98.00484;0.226706;0.207566;0.0816798;0.194509;0.001934353;0.000893033;2.26E-02;2.72E-63;3.29E-19;9.11E-16;0.2199;0.188047;0.0135506;0.002370938;6.07E-03;4.89E-53;7.52E-20;3.41E-13;0.210038;0.0780466;0.000540988;0.000160282;6.89E-04;6.36E-71;2.75E-23;2.25E-18;0.0794366
259.8406;90.8986;91.52348;96.40529;0.359056;0.362633;0.149165;0.27576;0.0323792;0.0153838;3.91E-02;1.63E-55;3.90E-17;3.27E-14;0.362618;0.238998;0.0829769;0.0179209;1.39E-02;8.13E-47;8.90E-18;5.99E-12;0.35381;0.131716;0.005776292;0.00123796;1.91E-03;5.20E-64;3.26E-21;8.08E-17;0.140642
274.164;84.22347;85.19005;93.66548;0.774079;0.529684;0.241888;0.0982189;0.300223;0.204757;6.66E-02;9.70E-48;4.62E-15;1.17E-12;0.669812;0.125477;0.237431;0.117506;3.14E-02;1.35E-40;1.05E-15;1.05E-10;0.511797;0.176215;0.0520761;0.009437107;5.28E-03;4.24E-57;3.86E-19;2.90E-15;0.24301
288.488;70.66377;76.41044;88.61342;1.03123;0.698588;0.477271;0.008550329;2.25E-01;0.68172;1.10E-01;5.79E-40;5.47E-13;4.22E-11;1.02615;0.0191415;0.191027;0.416671;6.83E-02;2.25E-34;1.25E-13;1.84E-09;0.695149;0.171213;0.193567;0.0654518;1.44E-02;3.46E-50;4.57E-17;1.04E-13;0.44466
302.812;59.81919;66.23273;80.72174;0.242969;0.627534;0.616121;0.000550439;1.94E-02;0.0822493;1.76E-01;3.46E-32;6.48E-11;1.51E-09;0.277844;0.001924057;2.49E-02;0.465396;1.38E-01;3.74E-28;1.48E-11;3.23E-08;0.630673;0.0966247;0.199082;0.279963;3.82E-02;2.83E-43;5.41E-15;3.74E-12;0.61388
317.1355;56.0065;61.58264;71.62415;0.276201;0.252507;0.621144;3.30E-05;1.14E-03;7.18075E-05;2.63E-01;2.06E-24;7.67E-09;5.44E-08;0.264377;0.000180749;1.53E-03;0.001532837;2.48E-01;6.21E-22;1.75E-09;5.67E-07;0.251493;0.0297968;0.0571799;0.445028;9.38E-02;2.31E-36;6.41E-13;1.34E-10;0.62578
331.459;51.81401;57.15812;63.7445;0.343568;0.367956;0.423803;1.93E-06;6.50E-05;5.57279E-08;3.66E-01;1.23E-16;9.09E-07;1.95E-06;0.366064;1.67359E-05;8.77E-05;1.20215E-06;3.77E-01;1.03E-15;2.08E-07;9.95E-06;0.377056;0.006797685;6.47E-03;0.158733;1.96E-01;1.88E-29;7.60E-11;4.83E-09;0.368497
345.783;46.11108;51.12518;58.97511;0.44899;0.485364;0.333744;1.11E-07;3.71E-06;4.32E-11;4.59E-01;7.28147E-09;1.07E-04;7.01E-05;0.459379;1.54E-06;5.00E-06;9.33461E-10;4.85E-01;1.70E-09;2.45932E-05;0.000174534;0.485233;0.001422853;6.08E-04;0.009280596;3.24E-01;1.54E-22;9.00E-09;1.73E-07;0.335383
360.107;42.1863;44.85721;53.53775;0.0916624;0.118609;0.426298;6.34E-09;2.11E-07;3.36E-14;0.0129552;0.07212166;0.0108486;0.002492061;0.0984178;1.42E-07;2.85E-07;7.24E-13;0.117056;0.002456272;0.002822341;0.003029723;0.125365;2.92E-04;5.60E-05;0.000391806;4.21E-01;1.26E-15;1.07E-06;6.22E-06;0.421805
374.4304;40.45631;43.24909;47.30815;0.146047;0.148965;0.4119632;3.62E-10;1.20459E-08;0.00E+00;7.90123E-06;0.0179484;0.0552188;0.0662268;0.139402;1.30E-08;1.62E-08;5.95E-16;2.04552E-05;0.0408675;0.06936403;0.0448313;0.155083;5.95E-05;5.14E-06;1.62588E-05;4.13E-01;1.01932E-08;0.000126156;0.000223178;0.413054
388.754;38.73004;40.88951;43.31758;0.005850295;0.0715643;0.133994;2.07E-11;6.86589E-10;0.00E+00;4.51E-09;0.000910089;0.00558991;0.006785818;0.0132858;1.20E-09;9.25538E-10;0.00E+00;2.72366E-09;0.003214243;0.009268501;0.0546115;0.0670943;1.21E-05;4.72E-07;6.74E-07;0.0774802;0.0392894;0.0130828;0.007739533;0.137605
403.078;38.61401;40.7063;41.00362;0.007371355;0.0114545;0.174325;1.18E-12;3.91339E-11;0.00E+00;2.50E-12;3.92503E-05;3.31E-04;5.35E-07;0.000370286;1.10E-10;5.27534E-11;0.00E+00;3.57E-13;0.000187258;2.78E-04;6.12E-07;0.000466158;2.47E-06;4.34E-08;2.79E-08;0.002586444;0.0128892;0.0374768;0.120214;0.173169
417.402;38.51157;40.51963;39.85971;0.008030145;0.0133417;0.008318549;6.72E-14;2.23058E-12;0.00E+00;1.43E-15;1.68E-06;1.89E-05;3.82E-11;2.06E-05;1.01E-11;3.00682E-12;0;0.00E+00;1.07E-05;7.77E-06;4.07E-12;1.85E-05;5.03E-07;3.99E-09;1.16E-09;7.28E-05;0.000405108;0.00050435;0.000407779;0.001390581
431.7253;38.38066;40.33612;39.75274;0.0102811;0.01596999;0.006352269;3.78E-15;1.27125E-13;0;0.00E+00;7.19E-08;1.08E-06;2.72E-15;1.15E-06;9.30E-13;1.71363E-13;0;0.00E+00;6.09E-07;2.16E-07;0.00E+00;8.25E-07;1.02E-07;3.66E-10;4.80E-11;2.03E-06;1.13E-05;4.28E-06;2.97E-08;1.78E-05
446.049;38.23823;40.11914;39.63242;0.00903556;0.018407;0.00683626;1.64E-16;7.27418E-15;0;0.00E+00;3.08E-09;6.13344E-08;0;6.44E-08;8.54E-14;9.79217E-15;0;0.00E+00;3.47E-08;6.02423E-09;0;4.07E-08;2.09E-08;3.37E-11;1.99E-12;5.67E-08;3.15E-07;3.61E-08;2.12E-12;4.29E-07
460.373;38.11104;39.88576;39.5268;0.008486667;0.0102652;0.007781742;0.00E+00;3.4639E-16;0;0.00E+00;1.32E-10;3.49592E-09;0;3.63E-09;7.82E-15;5.44009E-16;0;0.00E+00;1.98E-09;1.67773E-10;0;2.15E-09;4.25E-09;3.09E-12;8.26E-14;1.58E-09;8.78E-09;3.05E-10;1.47E-16;1.49E-08
474.696;37.99175;39.69977;39.4009;0.006383387;0.01315199;0.0105583;0.00E+00;0;0;0.00E+00;5.63E-12;1.99259E-10;0;2.05E-10;7.11E-16;0;0;0.00E+00;1.13E-10;4.67245E-12;0;1.17E-10;8.64E-10;2.84E-13;3.42E-15;4.40E-11;2.45E-10;2.57351E-12;0;1.16E-09
489.0202;37.88636;39.51075;39.26502;0.005157698;0.0138937;0.011054;0.00E+00;0;0;0.00E+00;2.41E-13;1.13573E-11;0;1.16E-11;8.88E-17;0;0;0.00E+00;6.43E-12;1.30127E-13;0;6.56E-12;1.76E-10;2.61E-14;1.22E-16;1.22E-12;6.81E-12;2.1716E-14;0;1.84E-10
497.614;37.82146;39.41721;39.18523;-0.0760056;-0.0792124;-0.0787462;0.00E+00;0;0;0.00E+00;3.64E-14;2.03607E-12;0;2.07E-12;0.00E+00;0;0;0.00E+00;1.15E-12;1.51834E-14;0;1.17E-12;6.77E-11;6.22E-15;0.00E+00;1.43E-13;7.95E-13;1.22569E-15;0;6.87E-11